Time_s,AccX,AccY,AccZ,GyrX,GyrY,GyrZ,EncRad,EncVel
7.285942,12.000000,-4.000000,16387.000000,1.000000,4.000000,-17.000000,2.790000,139.520000
7.587951,7.000000,5.000000,16379.000000,-2.000000,13.000000,-6.000000,2.790000,-0.080000
7.593289,-3.000000,-5.000000,16365.000000,7.000000,-24.000000,20.000000,2.790000,0.000000
7.734562,-6.000000,-1.000000,16382.000000,7.000000,17.000000,0.000000,2.790000,0.080000
7.879752,4.000000,-11.000000,16381.000000,-16.000000,4.000000,5.000000,2.790000,-0.080000
7.888946,4.000000,5.000000,16382.000000,1.000000,8.000000,18.000000,2.790000,0.080000
7.891267,-6.000000,-8.000000,16383.000000,20.000000,-9.000000,-17.000000,2.790000,0.000000
7.892280,12.000000,0.000000,16382.000000,25.000000,9.000000,3.000000,2.790000,0.000000
7.892868,-1.000000,11.000000,16384.000000,27.000000,-5.000000,-3.000000,2.790000,0.000000
7.893524,8.000000,9.000000,16383.000000,13.000000,-4.000000,-14.000000,2.790000,-0.080000
7.894658,1.000000,-8.000000,16378.000000,-1.000000,-10.000000,12.000000,2.790000,0.000000
7.895560,2.000000,-2.000000,16384.000000,2.000000,7.000000,-1.000000,2.790000,0.080000
7.896441,-5.000000,-12.000000,16379.000000,-7.000000,19.000000,11.000000,2.790000,-0.080000
7.897316,1.000000,-4.000000,16377.000000,-19.000000,-13.000000,-33.000000,2.790000,0.080000
7.899433,0.000000,1.000000,16387.000000,1.000000,8.000000,-13.000000,2.790000,0.000000
7.900173,-7.000000,-9.000000,16387.000000,-12.000000,4.000000,4.000000,2.790000,0.000000
7.900847,0.000000,-12.000000,16378.000000,0.000000,-4.000000,-25.000000,2.790000,-0.080000
7.901498,-2.000000,7.000000,16396.000000,1.000000,1.000000,-1.000000,2.790000,0.080000
7.914422,4.000000,3.000000,16364.000000,-14.000000,-2.000000,-11.000000,2.790000,0.000000
7.916138,14.000000,9.000000,16392.000000,2.000000,20.000000,8.000000,2.790000,0.000000
7.917054,5.000000,7.000000,16375.000000,-18.000000,12.000000,3.000000,2.790000,-0.080000
7.918151,0.000000,1.000000,16382.000000,-4.000000,-9.000000,-12.000000,2.790000,0.000000
7.918878,-2.000000,-7.000000,16373.000000,-22.000000,-25.000000,13.000000,2.790000,0.000000
7.919485,-1.000000,-4.000000,16374.000000,-5.000000,6.000000,-12.000000,2.790000,0.080000
7.920063,1.000000,8.000000,16384.000000,8.000000,-6.000000,-5.000000,2.790000,-0.080000
7.920597,5.000000,-11.000000,16362.000000,11.000000,-26.000000,-11.000000,2.790000,0.080000
7.921172,-1.000000,-8.000000,16380.000000,-7.000000,-9.000000,-13.000000,2.790000,0.000000
7.921688,-4.000000,5.000000,16390.000000,10.000000,-9.000000,6.000000,2.790000,0.000000
8.132447,-6.000000,-12.000000,16365.000000,14.000000,-3.000000,-17.000000,2.790000,-0.080000
8.133373,-3.000000,-8.000000,16376.000000,46.000000,-12.000000,-6.000000,2.790000,0.000000
8.134770,0.000000,-9.000000,16368.000000,-1.000000,-19.000000,6.000000,2.790000,0.000000
8.135324,2.000000,6.000000,16385.000000,-10.000000,3.000000,-8.000000,2.790000,0.080000
8.135855,11.000000,-3.000000,16374.000000,4.000000,-15.000000,-3.000000,2.790000,0.000000
8.136368,-1.000000,14.000000,16388.000000,8.000000,-4.000000,-9.000000,2.790000,0.000000
8.137576,-5.000000,1.000000,16371.000000,13.000000,20.000000,-6.000000,2.790000,-0.080000
8.138510,10.000000,1.000000,16378.000000,0.000000,11.000000,-8.000000,2.790000,0.080000
8.140561,1.000000,-3.000000,16380.000000,13.000000,-9.000000,14.000000,2.790000,0.000000
8.141799,12.000000,-13.000000,16371.000000,9.000000,-3.000000,12.000000,2.790000,-0.080000
8.142898,24.000000,5.000000,16387.000000,-6.000000,-13.000000,0.000000,2.790000,0.000000
8.331145,-1.000000,-6.000000,16381.000000,-6.000000,2.000000,-33.000000,2.790000,0.000000
8.332092,0.000000,-3.000000,16379.000000,15.000000,-8.000000,30.000000,2.790000,0.000000
8.333309,-4.000000,5.000000,16394.000000,-17.000000,18.000000,-14.000000,2.790000,0.080000
8.334440,13.000000,-1.000000,16383.000000,28.000000,-5.000000,14.000000,2.790000,-0.080000
8.335986,1.000000,-2.000000,16386.000000,-8.000000,-13.000000,1.000000,2.790000,0.080000
8.337760,3.000000,0.000000,16391.000000,13.000000,-13.000000,-10.000000,2.790000,-0.080000
8.341897,-2.000000,0.000000,16381.000000,-19.000000,-17.000000,4.000000,2.790000,0.080000
8.344768,3.000000,-3.000000,16383.000000,2.000000,7.000000,3.000000,2.790000,0.000000
8.346075,6.000000,6.000000,16385.000000,13.000000,-29.000000,5.000000,2.790000,-0.080000
8.347561,-3.000000,-8.000000,16378.000000,14.000000,-9.000000,-9.000000,2.790000,0.000000
8.350094,-4.000000,8.000000,16400.000000,-4.000000,-11.000000,1.000000,2.790000,0.080000
8.351399,-3.000000,0.000000,16389.000000,-9.000000,16.000000,9.000000,2.790000,-0.080000
8.352631,-7.000000,-11.000000,16368.000000,7.000000,3.000000,5.000000,2.790000,0.080000
8.556337,3.000000,-11.000000,16370.000000,-9.000000,-3.000000,-20.000000,2.790000,0.000000
8.734363,1.000000,-9.000000,16357.000000,8.000000,-12.000000,8.000000,2.790000,-0.080000
8.737706,9.000000,4.000000,16388.000000,14.000000,5.000000,2.000000,2.790000,0.000000
8.739066,5.000000,-1.000000,16390.000000,-15.000000,-1.000000,0.000000,2.790000,0.080000
8.741688,0.000000,-5.000000,16369.000000,6.000000,-1.000000,23.000000,2.790000,0.000000
8.744348,13.000000,2.000000,16386.000000,18.000000,4.000000,-10.000000,2.790000,0.000000
8.745356,5.000000,8.000000,16393.000000,23.000000,-18.000000,-5.000000,2.790000,0.000000
8.746194,-7.000000,4.000000,16389.000000,1.000000,9.000000,-2.000000,2.790000,-0.080000
8.746826,-8.000000,-8.000000,16384.000000,21.000000,1.000000,4.000000,2.790000,0.080000
8.747517,-8.000000,-5.000000,16374.000000,-15.000000,16.000000,-5.000000,2.790000,-0.080000
8.748258,3.000000,-1.000000,16387.000000,-7.000000,9.000000,-11.000000,2.790000,0.000000
8.748842,0.000000,-12.000000,16388.000000,7.000000,-4.000000,-30.000000,2.790000,0.080000
8.749485,4.000000,2.000000,16378.000000,13.000000,-19.000000,3.000000,2.790000,-0.080000
8.750602,2.000000,5.000000,16381.000000,-16.000000,16.000000,-15.000000,2.790000,0.080000
8.751288,-3.000000,-6.000000,16390.000000,21.000000,-4.000000,-15.000000,2.790000,-0.080000
8.751870,-8.000000,1.000000,16383.000000,5.000000,-5.000000,1.000000,2.790000,0.000000
8.752558,4.000000,-11.000000,16380.000000,5.000000,19.000000,7.000000,2.790000,0.080000
8.753288,-10.000000,3.000000,16390.000000,12.000000,-2.000000,19.000000,2.790000,0.000000
8.753914,1.000000,14.000000,16383.000000,-24.000000,-3.000000,-15.000000,2.790000,-0.080000
8.754659,8.000000,-10.000000,16384.000000,12.000000,-1.000000,-15.000000,2.790000,0.080000
8.755324,8.000000,15.000000,16392.000000,2.000000,4.000000,-13.000000,2.790000,0.000000
8.756940,3.000000,-17.000000,16390.000000,-13.000000,-10.000000,-8.000000,2.790000,0.000000
8.759143,8.000000,-4.000000,16373.000000,7.000000,-8.000000,-1.000000,2.790000,0.000000
8.760343,18.000000,2.000000,16396.000000,2.000000,-1.000000,19.000000,2.790000,0.000000
8.779841,17.000000,-10.000000,16398.000000,8.000000,15.000000,16.000000,2.790000,-0.080000
8.970998,1.000000,-11.000000,16381.000000,31.000000,-14.000000,-1.000000,2.790000,0.000000
9.119610,5.000000,6.000000,16393.000000,24.000000,2.000000,0.000000,2.790000,0.080000
9.121574,4.000000,5.000000,16396.000000,23.000000,-8.000000,11.000000,2.790000,-0.080000
9.123641,-2.000000,-1.000000,16383.000000,4.000000,-10.000000,5.000000,2.790000,0.080000
9.125265,6.000000,-7.000000,16381.000000,13.000000,26.000000,21.000000,2.790000,0.000000
9.127576,16.000000,3.000000,16390.000000,-9.000000,-7.000000,-7.000000,2.790000,-0.080000
9.129583,1.000000,-2.000000,16393.000000,11.000000,-17.000000,-8.000000,2.790000,0.080000
9.132045,-5.000000,0.000000,16394.000000,11.000000,-21.000000,21.000000,2.790000,0.000000
9.133445,9.000000,6.000000,16395.000000,2.000000,-9.000000,-12.000000,2.790000,-0.080000
9.135258,1.000000,-4.000000,16386.000000,-9.000000,-8.000000,-7.000000,2.790000,0.080000
9.136730,4.000000,-13.000000,16375.000000,-1.000000,-18.000000,-22.000000,2.790000,-0.080000
9.138403,8.000000,-7.000000,16384.000000,-1.000000,3.000000,16.000000,2.790000,0.080000
9.139354,9.000000,1.000000,16387.000000,-4.000000,3.000000,-3.000000,2.790000,0.000000
9.140769,8.000000,-6.000000,16389.000000,8.000000,14.000000,-14.000000,2.790000,0.000000
9.142803,-4.000000,0.000000,16390.000000,5.000000,7.000000,-4.000000,2.790000,-0.080000
9.144339,11.000000,-9.000000,16399.000000,-4.000000,-4.000000,1.000000,2.790000,0.080000
9.145981,12.000000,1.000000,16385.000000,22.000000,1.000000,17.000000,2.790000,0.000000
9.148257,13.000000,-2.000000,16384.000000,-3.000000,-10.000000,-7.000000,2.790000,0.000000
9.150888,-3.000000,-2.000000,16382.000000,-20.000000,-10.000000,6.000000,2.790000,0.000000
9.161444,-7.000000,3.000000,16399.000000,-41.000000,-4.000000,-9.000000,2.790000,0.000000
9.326856,-6.000000,5.000000,16387.000000,-1.000000,-2.000000,5.000000,2.790000,0.000000
9.459219,9.000000,-3.000000,16384.000000,-6.000000,-6.000000,5.000000,2.790000,0.000000
9.461825,2.000000,-5.000000,16360.000000,7.000000,21.000000,5.000000,2.790000,0.000000
9.462541,2.000000,-4.000000,16364.000000,27.000000,8.000000,10.000000,2.790000,0.000000
9.463149,-16.000000,3.000000,16398.000000,3.000000,-6.000000,-19.000000,2.790000,0.000000
9.463669,5.000000,3.000000,16383.000000,-15.000000,16.000000,0.000000,2.790000,-0.080000
9.466179,2.000000,1.000000,16384.000000,13.000000,5.000000,22.000000,2.790000,0.000000
9.473416,6.000000,-5.000000,16378.000000,22.000000,-2.000000,-4.000000,2.790000,0.000000
9.474965,-7.000000,10.000000,16394.000000,10.000000,-5.000000,-14.000000,2.790000,0.080000
9.475919,9.000000,10.000000,16392.000000,-24.000000,-9.000000,11.000000,2.790000,0.000000
9.476786,-14.000000,3.000000,16397.000000,7.000000,-2.000000,18.000000,2.790000,0.000000
9.477345,6.000000,5.000000,16393.000000,-9.000000,-9.000000,5.000000,2.790000,0.000000
9.477876,-7.000000,1.000000,16397.000000,-13.000000,15.000000,-35.000000,2.790000,-0.080000
9.478400,-6.000000,-18.000000,16393.000000,-4.000000,-27.000000,3.000000,2.790000,0.000000
9.479180,1.000000,-1.000000,16381.000000,-1.000000,-1.000000,-3.000000,2.790000,0.000000
9.488441,17.000000,0.000000,16377.000000,-5.000000,-2.000000,17.000000,2.790000,0.080000
9.503536,4.000000,-1.000000,16370.000000,21.000000,-7.000000,13.000000,2.790000,0.000000
9.673176,3.000000,3.000000,16390.000000,12.000000,1.000000,5.000000,2.790000,0.000000
9.816579,-7.000000,1.000000,16386.000000,9.000000,-9.000000,7.000000,2.790000,-0.080000
9.819206,-5.000000,-4.000000,16395.000000,11.000000,-4.000000,15.000000,2.790000,0.000000
9.821616,-3.000000,-14.000000,16404.000000,20.000000,12.000000,4.000000,2.790000,0.080000
9.823969,-3.000000,-5.000000,16385.000000,23.000000,-1.000000,-23.000000,2.790000,-0.080000
9.826025,-10.000000,11.000000,16384.000000,-1.000000,5.000000,-2.000000,2.790000,0.000000
9.827851,1.000000,7.000000,16393.000000,4.000000,10.000000,-5.000000,2.790000,0.080000
9.828909,10.000000,-2.000000,16388.000000,-8.000000,14.000000,8.000000,2.790000,-0.080000
9.830729,9.000000,-4.000000,16397.000000,0.000000,6.000000,-18.000000,2.790000,0.080000
9.833689,8.000000,-2.000000,16388.000000,-15.000000,-12.000000,13.000000,2.790000,-0.080000
9.835122,7.000000,-4.000000,16398.000000,1.000000,3.000000,7.000000,2.790000,0.000000
9.836281,-2.000000,-8.000000,16384.000000,-6.000000,11.000000,-13.000000,2.790000,0.000000
9.838533,0.000000,4.000000,16408.000000,-14.000000,-24.000000,1.000000,2.790000,0.080000
9.840915,15.000000,9.000000,16392.000000,-20.000000,23.000000,-7.000000,2.790000,0.000000
9.843346,-11.000000,-2.000000,16397.000000,14.000000,11.000000,-4.000000,2.790000,0.000000
9.846296,3.000000,-17.000000,16406.000000,12.000000,7.000000,10.000000,2.790000,0.000000
9.848613,7.000000,-1.000000,16393.000000,21.000000,-8.000000,13.000000,2.790000,-0.080000
9.861732,8.000000,5.000000,16389.000000,4.000000,-6.000000,-16.000000,2.790000,0.000000
10.011014,-11.000000,1.000000,16386.000000,-3.000000,-31.000000,-2.000000,2.790000,0.000000
10.011795,2.000000,-12.000000,16366.000000,-3.000000,29.000000,13.000000,2.790000,0.000000
10.012388,-4.000000,7.000000,16389.000000,15.000000,-2.000000,17.000000,2.790000,0.080000
10.013011,1.000000,-2.000000,16388.000000,-4.000000,-5.000000,30.000000,2.790000,0.000000
10.013688,4.000000,-6.000000,16374.000000,29.000000,21.000000,6.000000,2.790000,-0.080000
10.014407,2.000000,13.000000,16391.000000,0.000000,-12.000000,-5.000000,2.790000,0.080000
10.015258,2.000000,-1.000000,16391.000000,-16.000000,-8.000000,-5.000000,2.790000,0.000000
10.019581,-4.000000,5.000000,16385.000000,23.000000,-13.000000,16.000000,2.790000,0.000000
10.181699,8.000000,2.000000,16389.000000,-8.000000,5.000000,5.000000,2.790000,0.000000
10.183633,-9.000000,-16.000000,16388.000000,-10.000000,-5.000000,-4.000000,2.790000,-0.080000
10.185377,-6.000000,-11.000000,16381.000000,-13.000000,7.000000,15.000000,2.790000,0.000000
10.187375,2.000000,-7.000000,16390.000000,1.000000,-6.000000,4.000000,2.790000,0.000000
10.189467,6.000000,-9.000000,16380.000000,-17.000000,26.000000,2.000000,2.790000,0.080000
10.191585,-4.000000,-2.000000,16397.000000,24.000000,-9.000000,-16.000000,2.790000,-0.080000
10.193841,2.000000,-10.000000,16395.000000,13.000000,-14.000000,6.000000,2.790000,0.000000
10.196096,-6.000000,-4.000000,16395.000000,-16.000000,11.000000,3.000000,2.790000,0.000000
10.205147,2.000000,-9.000000,16390.000000,13.000000,26.000000,-13.000000,2.790000,0.080000
10.375558,0.000000,-4.000000,16383.000000,34.000000,12.000000,13.000000,2.790000,0.000000
10.377428,-13.000000,6.000000,16386.000000,33.000000,-6.000000,-1.000000,2.790000,-0.080000
10.378779,-4.000000,-11.000000,16388.000000,-9.000000,-2.000000,10.000000,2.790000,0.000000
10.379672,-2.000000,-3.000000,16382.000000,31.000000,1.000000,-3.000000,2.790000,0.080000
10.380289,-1.000000,6.000000,16395.000000,8.000000,1.000000,-1.000000,2.790000,-0.080000
10.381443,5.000000,-7.000000,16390.000000,-4.000000,3.000000,13.000000,2.790000,0.000000
10.383176,-3.000000,-4.000000,16379.000000,-20.000000,-3.000000,-16.000000,2.790000,0.000000
10.384933,-2.000000,-16.000000,16394.000000,18.000000,-14.000000,-17.000000,2.790000,0.000000
10.557999,3.000000,-2.000000,16366.000000,8.000000,-21.000000,-12.000000,2.790000,0.000000
10.560313,-5.000000,5.000000,16400.000000,22.000000,-6.000000,2.000000,2.790000,0.000000
10.561129,21.000000,3.000000,16380.000000,4.000000,8.000000,9.000000,2.790000,0.080000
10.561754,1.000000,-13.000000,16390.000000,-4.000000,-6.000000,0.000000,2.790000,0.000000
10.562384,6.000000,13.000000,16390.000000,-45.000000,2.000000,-30.000000,2.790000,-0.080000
10.562936,9.000000,12.000000,16383.000000,-4.000000,-5.000000,-9.000000,2.790000,0.000000
10.563477,4.000000,11.000000,16388.000000,11.000000,0.000000,-14.000000,2.790000,0.080000
10.564746,-9.000000,-9.000000,16395.000000,25.000000,7.000000,-12.000000,2.790000,-0.080000
10.567228,5.000000,0.000000,16394.000000,-12.000000,-3.000000,6.000000,2.790000,0.080000
10.569509,-3.000000,-17.000000,16385.000000,14.000000,4.000000,-6.000000,2.790000,0.000000
10.582892,-4.000000,2.000000,16388.000000,22.000000,9.000000,-13.000000,2.790000,-0.080000
10.775219,15.000000,-2.000000,16386.000000,-7.000000,-11.000000,8.000000,2.790000,0.000000
10.910449,16.000000,-11.000000,16382.000000,-3.000000,11.000000,3.000000,2.790000,0.080000
10.912073,-4.000000,-9.000000,16388.000000,-4.000000,11.000000,-15.000000,2.790000,0.000000
10.913135,11.000000,-5.000000,16371.000000,-33.000000,23.000000,0.000000,2.790000,-0.080000
10.913832,-2.000000,-2.000000,16411.000000,-17.000000,-12.000000,-8.000000,2.790000,0.080000
10.915615,-8.000000,2.000000,16395.000000,18.000000,12.000000,5.000000,2.790000,-0.080000
10.916425,-2.000000,-12.000000,16384.000000,15.000000,10.000000,1.000000,2.790000,0.080000
10.920016,3.000000,-8.000000,16384.000000,-13.000000,24.000000,0.000000,2.790000,0.000000
10.923047,5.000000,1.000000,16385.000000,3.000000,-8.000000,2.000000,2.790000,0.000000
10.926115,-13.000000,7.000000,16383.000000,10.000000,-14.000000,14.000000,2.790000,-0.080000
10.927308,13.000000,-13.000000,16388.000000,-3.000000,5.000000,4.000000,2.790000,0.000000
10.928112,-6.000000,5.000000,16401.000000,15.000000,-1.000000,-4.000000,2.790000,0.000000
10.928732,-2.000000,-6.000000,16372.000000,25.000000,7.000000,4.000000,2.790000,0.080000
10.929329,12.000000,11.000000,16389.000000,-14.000000,10.000000,4.000000,2.790000,0.000000
10.929933,-12.000000,19.000000,16377.000000,12.000000,-23.000000,20.000000,2.790000,0.000000
10.932216,14.000000,5.000000,16380.000000,-28.000000,-9.000000,-2.000000,2.790000,0.000000
10.933177,1.000000,-1.000000,16381.000000,-13.000000,-6.000000,13.000000,2.790000,-0.080000
10.942019,2.000000,-9.000000,16371.000000,6.000000,-21.000000,-8.000000,2.790000,0.080000
11.122407,5.000000,1.000000,16376.000000,-28.000000,14.000000,-7.000000,2.790000,0.000000
11.276341,-2.000000,4.000000,16386.000000,0.000000,-13.000000,3.000000,2.790000,-0.080000
11.277262,6.000000,2.000000,16370.000000,28.000000,-16.000000,15.000000,2.790000,0.080000
11.278060,8.000000,2.000000,16384.000000,0.000000,5.000000,20.000000,2.790000,-0.080000
11.278671,5.000000,-10.000000,16389.000000,-4.000000,2.000000,2.000000,2.790000,0.000000
11.279205,-8.000000,-12.000000,16383.000000,25.000000,-21.000000,22.000000,2.790000,0.080000
11.279815,9.000000,0.000000,16395.000000,6.000000,12.000000,11.000000,2.790000,0.000000
11.280369,4.000000,-2.000000,16381.000000,37.000000,-11.000000,12.000000,2.790000,0.000000
11.281726,13.000000,-7.000000,16385.000000,27.000000,11.000000,16.000000,2.790000,0.000000
11.282989,12.000000,-7.000000,16403.000000,10.000000,0.000000,0.000000,2.790000,0.000000
11.285402,-2.000000,-1.000000,16376.000000,9.000000,16.000000,10.000000,2.790000,0.000000
11.287447,-9.000000,11.000000,16394.000000,21.000000,3.000000,-17.000000,2.790000,0.000000
11.289306,-7.000000,-7.000000,16385.000000,7.000000,10.000000,12.000000,2.790000,-0.080000
11.291057,6.000000,-5.000000,16381.000000,17.000000,-2.000000,8.000000,2.790000,0.000000
11.292894,-6.000000,-9.000000,16387.000000,2.000000,24.000000,-7.000000,2.790000,0.000000
11.304281,2.000000,1.000000,16383.000000,-18.000000,-3.000000,-11.000000,2.790000,0.080000
11.307121,-7.000000,1.000000,16387.000000,-18.000000,-18.000000,7.000000,2.790000,-0.080000
11.308393,3.000000,1.000000,16385.000000,-22.000000,-27.000000,-19.000000,2.790000,0.080000
11.493893,7.000000,-3.000000,16372.000000,-25.000000,17.000000,-42.000000,2.790000,0.000000
11.500947,10.000000,-2.000000,16390.000000,4.000000,6.000000,-12.000000,2.790000,0.000000
11.503773,6.000000,2.000000,16382.000000,6.000000,-5.000000,13.000000,2.790000,-0.080000
11.504674,-1.000000,13.000000,16382.000000,-7.000000,7.000000,-10.000000,2.790000,0.080000
11.505455,0.000000,0.000000,16383.000000,2.000000,6.000000,1.000000,2.790000,-0.080000
11.506140,1.000000,-7.000000,16387.000000,-3.000000,3.000000,-5.000000,2.790000,0.080000
11.506899,14.000000,3.000000,16381.000000,4.000000,3.000000,14.000000,2.790000,0.000000
11.507642,-9.000000,-13.000000,16387.000000,-4.000000,-18.000000,-13.000000,2.790000,0.000000
11.508279,0.000000,9.000000,16384.000000,16.000000,-22.000000,9.000000,2.790000,0.000000
11.509083,-12.000000,16.000000,16386.000000,20.000000,-2.000000,7.000000,2.790000,-0.080000
11.679878,1.000000,-3.000000,16388.000000,23.000000,-5.000000,-14.000000,2.790000,0.080000
11.686719,-13.000000,-2.000000,16368.000000,-13.000000,-6.000000,1.000000,2.790000,-0.080000
11.689117,1.000000,3.000000,16374.000000,25.000000,-14.000000,11.000000,2.790000,0.000000
11.690262,-5.000000,6.000000,16396.000000,13.000000,16.000000,5.000000,2.790000,0.080000
11.691206,-1.000000,-4.000000,16385.000000,24.000000,4.000000,3.000000,2.790000,-0.080000
11.692293,-3.000000,-8.000000,16377.000000,3.000000,2.000000,-4.000000,2.790000,0.080000
11.693354,7.000000,-10.000000,16369.000000,3.000000,12.000000,12.000000,2.790000,-0.080000
11.694347,-10.000000,5.000000,16397.000000,26.000000,5.000000,31.000000,2.790000,0.080000
11.695375,-1.000000,-1.000000,16386.000000,-5.000000,13.000000,-2.000000,2.790000,-0.080000
11.704863,-4.000000,-9.000000,16380.000000,13.000000,-22.000000,2.000000,2.790000,0.080000
11.935723,-2.000000,12.000000,16389.000000,20.000000,-17.000000,17.000000,2.790000,0.000000
11.938412,17.000000,-2.000000,16387.000000,-22.000000,-3.000000,0.000000,2.790000,-0.080000
11.940629,0.000000,1.000000,16392.000000,17.000000,4.000000,23.000000,2.790000,0.080000
11.942482,0.000000,-8.000000,16388.000000,3.000000,-6.000000,3.000000,2.790000,0.000000
11.944365,-6.000000,-3.000000,16387.000000,9.000000,10.000000,9.000000,2.790000,0.000000
11.945674,4.000000,-4.000000,16380.000000,-4.000000,11.000000,5.000000,2.790000,0.000000
11.946998,10.000000,2.000000,16383.000000,1.000000,3.000000,-6.000000,2.790000,-0.080000
11.950039,3.000000,-6.000000,16374.000000,-13.000000,-5.000000,1.000000,2.790000,0.080000
11.953354,4.000000,-18.000000,16393.000000,17.000000,-11.000000,18.000000,2.790000,0.000000
11.956310,-12.000000,-5.000000,16377.000000,8.000000,8.000000,0.000000,2.790000,0.000000
11.960332,3.000000,11.000000,16393.000000,4.000000,6.000000,-20.000000,2.790000,0.000000
12.135023,-8.000000,6.000000,16385.000000,24.000000,14.000000,-3.000000,2.790000,0.000000
12.140949,5.000000,-3.000000,16391.000000,14.000000,7.000000,2.000000,2.790000,0.000000
12.143437,-2.000000,-264.000000,16391.000000,-8.000000,-6.000000,2.000000,2.790000,0.000000
12.144640,13.000000,-7.000000,16388.000000,23.000000,-4.000000,11.000000,2.790000,0.000000
12.145576,0.000000,-3.000000,16374.000000,-25.000000,6.000000,4.000000,2.790000,0.000000
12.146350,0.000000,-12.000000,16389.000000,-12.000000,-3.000000,-9.000000,2.790000,0.000000
12.147212,-6.000000,-14.000000,16393.000000,-8.000000,-1.000000,-11.000000,2.790000,0.000000
12.148282,5.000000,-5.000000,16375.000000,-6.000000,4.000000,-8.000000,2.790000,-0.080000
12.149326,7.000000,-3.000000,16382.000000,-1.000000,4.000000,13.000000,2.790000,0.080000
12.150989,19.000000,3.000000,16409.000000,27.000000,-6.000000,17.000000,2.790000,0.000000
12.153829,11.000000,0.000000,16390.000000,2.000000,-17.000000,10.000000,2.790000,0.000000
12.167037,9.000000,9.000000,16386.000000,14.000000,3.000000,21.000000,2.790000,0.000000
12.344171,3.000000,2.000000,16411.000000,-24.000000,10.000000,16.000000,2.790000,0.000000
12.348667,-22.000000,-12.000000,16405.000000,-12.000000,-22.000000,4.000000,2.790000,0.000000
12.351998,-51.000000,-16.000000,16416.000000,-42.000000,10.000000,-2.000000,2.790000,0.000000
12.355860,-26.000000,-25.000000,16330.000000,-10.000000,-18.000000,9.000000,2.790000,-0.080000
12.363244,129.000000,51.000000,16265.000000,4.000000,0.000000,-8.000000,2.790000,0.000000
12.366152,108.000000,44.000000,16329.000000,7.000000,14.000000,32.000000,2.790000,0.080000
12.368873,-6.000000,-33.000000,16385.000000,-17.000000,27.000000,31.000000,2.790000,-0.080000
12.370274,-81.000000,-47.000000,16395.000000,16.000000,-1.000000,10.000000,2.790000,0.000000
12.371934,-33.000000,3.000000,16397.000000,-6.000000,-5.000000,-21.000000,2.790000,0.080000
12.550262,20.000000,29.000000,16369.000000,-15.000000,20.000000,-25.000000,2.790000,0.000000
12.552922,-1.000000,14.000000,16368.000000,6.000000,-13.000000,12.000000,2.790000,0.000000
12.555040,-56.000000,-53.000000,16387.000000,-13.000000,-3.000000,14.000000,2.790000,-0.080000
12.556086,-30.000000,-27.000000,16388.000000,-26.000000,-7.000000,-18.000000,2.790000,0.080000
12.557084,62.000000,36.000000,16386.000000,1.000000,-6.000000,-28.000000,2.790000,0.000000
12.558039,97.000000,51.000000,16371.000000,-10.000000,10.000000,10.000000,2.790000,0.000000
12.558934,31.000000,10.000000,16381.000000,-15.000000,-4.000000,-3.000000,2.790000,-0.080000
12.559775,-67.000000,-65.000000,16392.000000,-1.000000,-4.000000,15.000000,2.790000,0.000000
12.560550,-70.000000,-35.000000,16382.000000,4.000000,-19.000000,4.000000,2.790000,0.000000
12.562216,-16.000000,-2.000000,16394.000000,2.000000,-24.000000,-11.000000,2.790000,0.000000
12.570284,27.000000,33.000000,16381.000000,14.000000,7.000000,24.000000,2.790000,0.000000
12.585399,27.000000,12.000000,16396.000000,7.000000,-9.000000,28.000000,2.790000,0.080000
12.782541,1.000000,-17.000000,16396.000000,14.000000,-4.000000,27.000000,2.790000,-0.080000
12.786701,8.000000,-17.000000,16389.000000,-11.000000,2.000000,6.000000,2.790000,0.080000
12.788421,17.000000,-5.000000,16377.000000,-16.000000,-8.000000,-18.000000,2.790000,0.000000
12.790708,17.000000,3.000000,16390.000000,4.000000,26.000000,5.000000,2.790000,0.000000
12.791662,-4.000000,-3.000000,16383.000000,16.000000,8.000000,6.000000,2.790000,0.000000
12.792435,-46.000000,-4.000000,16386.000000,22.000000,12.000000,10.000000,2.790000,0.000000
12.793259,-11.000000,10.000000,16382.000000,-10.000000,-7.000000,-20.000000,2.790000,-0.080000
12.793987,3.000000,24.000000,16370.000000,-2.000000,1.000000,7.000000,2.790000,0.000000
12.794684,37.000000,-19.000000,16398.000000,10.000000,-20.000000,16.000000,2.790000,0.080000
12.795485,1.000000,-17.000000,16386.000000,-10.000000,5.000000,3.000000,2.790000,0.000000
12.803901,-16.000000,-24.000000,16379.000000,-29.000000,4.000000,7.000000,2.790000,-0.080000
12.986402,-11.000000,16.000000,16397.000000,11.000000,11.000000,2.000000,2.790000,0.000000
12.991716,2.000000,18.000000,16386.000000,24.000000,16.000000,13.000000,2.790000,0.080000
12.994035,0.000000,-7.000000,16384.000000,-28.000000,15.000000,-1.000000,2.790000,0.000000
12.995822,4.000000,-14.000000,16393.000000,0.000000,-10.000000,1.000000,2.790000,0.000000
12.997621,21.000000,-6.000000,16393.000000,13.000000,8.000000,9.000000,2.790000,0.000000
13.000405,25.000000,3.000000,16396.000000,-8.000000,-6.000000,-3.000000,2.790000,-0.080000
13.003122,18.000000,-17.000000,16384.000000,17.000000,-2.000000,-9.000000,2.790000,0.080000
13.006221,3.000000,-17.000000,16405.000000,2.000000,7.000000,-5.000000,2.790000,0.000000
13.007421,-10.000000,-10.000000,16376.000000,7.000000,-17.000000,-7.000000,2.790000,0.000000
13.008406,-12.000000,-1.000000,16378.000000,1.000000,-10.000000,4.000000,2.790000,-0.080000
13.020933,-4.000000,-11.000000,16372.000000,20.000000,9.000000,22.000000,2.790000,0.000000
13.202899,7.000000,-3.000000,16386.000000,-17.000000,24.000000,15.000000,2.790000,0.080000
13.209327,3.000000,-11.000000,16365.000000,10.000000,3.000000,-4.000000,2.790000,-0.080000
13.210631,15.000000,-16.000000,16379.000000,7.000000,7.000000,-5.000000,2.790000,0.000000
13.211711,22.000000,-1.000000,16377.000000,-22.000000,16.000000,19.000000,2.790000,0.080000
13.212648,0.000000,-4.000000,16379.000000,0.000000,10.000000,22.000000,2.790000,0.000000
13.213376,0.000000,2.000000,16384.000000,-3.000000,2.000000,10.000000,2.790000,0.000000
13.215855,-11.000000,-7.000000,16391.000000,-19.000000,-3.000000,-25.000000,2.790000,0.000000
13.218974,12.000000,-3.000000,16390.000000,16.000000,-4.000000,-6.000000,2.790000,0.000000
13.221274,14.000000,10.000000,16390.000000,17.000000,15.000000,30.000000,2.790000,0.000000
13.223257,19.000000,0.000000,16389.000000,-22.000000,26.000000,8.000000,2.790000,0.000000
13.415717,2.000000,0.000000,16385.000000,-7.000000,-14.000000,25.000000,2.790000,-0.080000
13.423022,-1.000000,-2.000000,16382.000000,-9.000000,6.000000,-24.000000,2.790000,0.000000
13.725856,2.000000,-4.000000,16385.000000,26.000000,10.000000,-5.000000,2.790000,0.000000
13.732086,-2.000000,-10.000000,16385.000000,18.000000,-15.000000,16.000000,2.790000,0.000000
13.734932,-10.000000,-5.000000,16384.000000,6.000000,4.000000,4.000000,2.790000,0.080000
13.737879,-14.000000,1.000000,16389.000000,21.000000,3.000000,12.000000,2.790000,-0.080000
13.741212,11.000000,4.000000,16372.000000,11.000000,-3.000000,8.000000,2.790000,0.000000
13.743847,11.000000,-4.000000,16379.000000,7.000000,-13.000000,-17.000000,2.790000,0.000000
13.745808,17.000000,-3.000000,16386.000000,-2.000000,6.000000,15.000000,2.790000,0.080000
14.027873,5.000000,-16.000000,16402.000000,4.000000,-33.000000,11.000000,2.790000,0.000000
14.029833,-2.000000,-12.000000,16386.000000,17.000000,14.000000,6.000000,2.790000,0.000000
14.030641,1.000000,-12.000000,16394.000000,9.000000,-2.000000,-1.000000,2.790000,-0.080000
14.031421,9.000000,-7.000000,16403.000000,-11.000000,23.000000,-3.000000,2.790000,0.080000
14.032794,-2.000000,13.000000,16398.000000,-1.000000,17.000000,-2.000000,2.790000,0.000000
14.033653,3.000000,2.000000,16388.000000,10.000000,-3.000000,15.000000,2.790000,-0.080000
14.034341,1.000000,-9.000000,16379.000000,-22.000000,-10.000000,-6.000000,2.790000,0.080000
14.035234,11.000000,10.000000,16396.000000,12.000000,-13.000000,-1.000000,2.790000,-0.080000
14.036169,15.000000,-4.000000,16404.000000,5.000000,1.000000,5.000000,2.790000,0.080000
14.037091,-6.000000,-22.000000,16397.000000,17.000000,6.000000,-1.000000,2.790000,0.000000
14.037922,-12.000000,-3.000000,16395.000000,11.000000,-4.000000,6.000000,2.790000,0.000000
14.038643,7.000000,4.000000,16385.000000,-12.000000,5.000000,15.000000,2.790000,0.000000
14.039319,10.000000,14.000000,16398.000000,8.000000,19.000000,7.000000,2.790000,0.000000
14.040067,-8.000000,-7.000000,16399.000000,-5.000000,9.000000,16.000000,2.790000,0.000000
14.040761,7.000000,-13.000000,16403.000000,1.000000,-10.000000,7.000000,2.790000,0.000000
14.041392,3.000000,-20.000000,16397.000000,18.000000,-9.000000,-3.000000,2.790000,0.000000
14.042143,-7.000000,-14.000000,16380.000000,-4.000000,6.000000,5.000000,2.790000,-0.080000
14.042861,8.000000,-3.000000,16388.000000,-18.000000,-7.000000,-21.000000,2.790000,0.000000
14.043492,8.000000,4.000000,16386.000000,-3.000000,-4.000000,-6.000000,2.790000,0.080000
14.044198,16.000000,9.000000,16381.000000,20.000000,8.000000,0.000000,2.790000,-0.080000
14.044942,17.000000,8.000000,16410.000000,-1.000000,12.000000,26.000000,2.790000,0.080000
14.045649,-1.000000,-17.000000,16398.000000,10.000000,2.000000,-15.000000,2.790000,-0.080000
14.046413,2.000000,-19.000000,16393.000000,9.000000,17.000000,32.000000,2.790000,0.000000
14.048174,8.000000,8.000000,16403.000000,15.000000,4.000000,19.000000,2.790000,0.000000
14.049396,-4.000000,4.000000,16394.000000,11.000000,-1.000000,3.000000,2.790000,0.080000
14.050345,3.000000,9.000000,16395.000000,5.000000,2.000000,20.000000,2.790000,0.000000
14.051100,6.000000,1.000000,16389.000000,-5.000000,0.000000,-7.000000,2.790000,0.000000
14.051866,4.000000,2.000000,16383.000000,-13.000000,-12.000000,3.000000,2.790000,0.000000
14.052574,1.000000,-21.000000,16381.000000,4.000000,-36.000000,6.000000,2.790000,0.000000
14.053353,-10.000000,-5.000000,16390.000000,0.000000,-8.000000,-25.000000,2.790000,-0.080000
14.054195,7.000000,-2.000000,16386.000000,29.000000,-7.000000,-3.000000,2.790000,0.080000
14.054907,3.000000,4.000000,16394.000000,19.000000,-11.000000,3.000000,2.790000,-0.080000
14.279341,12.000000,11.000000,16396.000000,2.000000,-3.000000,3.000000,2.790000,0.080000
14.283368,-1.000000,4.000000,16389.000000,-1.000000,-17.000000,-19.000000,2.790000,0.000000
14.284501,6.000000,9.000000,16398.000000,14.000000,-15.000000,-1.000000,2.790000,0.000000
14.285504,4.000000,0.000000,16385.000000,-3.000000,26.000000,10.000000,2.790000,0.000000
14.286465,-8.000000,-4.000000,16391.000000,42.000000,-28.000000,-25.000000,2.790000,0.000000
14.287375,-2.000000,-7.000000,16399.000000,18.000000,5.000000,-11.000000,2.790000,-0.080000
14.288265,5.000000,-17.000000,16390.000000,2.000000,-10.000000,2.000000,2.790000,0.000000
14.289142,15.000000,-3.000000,16390.000000,-8.000000,-7.000000,24.000000,2.790000,0.000000
14.290016,19.000000,5.000000,16389.000000,-21.000000,-4.000000,-12.000000,2.790000,0.000000
14.290805,4.000000,14.000000,16399.000000,28.000000,-36.000000,10.000000,2.790000,0.000000
14.291716,-6.000000,-6.000000,16390.000000,35.000000,7.000000,8.000000,2.790000,0.000000
14.292705,-10.000000,10.000000,16390.000000,3.000000,5.000000,10.000000,2.790000,0.000000
14.557523,5.000000,-4.000000,16385.000000,0.000000,-5.000000,-29.000000,2.790000,0.000000
14.560934,1.000000,-12.000000,16393.000000,-20.000000,-1.000000,7.000000,2.790000,0.080000
14.561993,8.000000,-11.000000,16405.000000,-7.000000,-22.000000,-10.000000,2.790000,0.000000
14.562978,17.000000,-2.000000,16396.000000,5.000000,3.000000,3.000000,2.790000,-0.080000
14.564211,0.000000,3.000000,16398.000000,0.000000,24.000000,-9.000000,2.790000,0.080000
14.567212,-1.000000,3.000000,16397.000000,11.000000,-9.000000,-7.000000,2.790000,0.000000
14.568452,-15.000000,-8.000000,16398.000000,11.000000,1.000000,2.000000,2.790000,0.000000
14.569619,-2.000000,-2.000000,16387.000000,-6.000000,13.000000,-14.000000,2.790000,0.000000
14.570604,19.000000,6.000000,16394.000000,-6.000000,12.000000,-9.000000,2.790000,-0.080000
14.571581,11.000000,-14.000000,16390.000000,6.000000,-19.000000,-10.000000,2.790000,0.080000
14.572487,4.000000,-9.000000,16375.000000,-36.000000,-14.000000,14.000000,2.790000,0.000000
14.573418,6.000000,8.000000,16394.000000,16.000000,4.000000,14.000000,2.790000,0.000000
14.575162,-5.000000,3.000000,16392.000000,21.000000,4.000000,8.000000,2.790000,0.000000
14.576431,-4.000000,-9.000000,16392.000000,-24.000000,3.000000,-6.000000,2.790000,-0.080000
14.807733,4.000000,-3.000000,16381.000000,37.000000,2.000000,-10.000000,2.790000,0.080000
14.811785,5.000000,-2.000000,16380.000000,30.000000,-7.000000,-4.000000,2.790000,0.000000
14.813136,12.000000,-6.000000,16378.000000,0.000000,16.000000,16.000000,2.790000,0.000000
14.817059,12.000000,-3.000000,16395.000000,-9.000000,-5.000000,12.000000,2.790000,-0.080000
14.818445,6.000000,0.000000,16392.000000,0.000000,-13.000000,-6.000000,2.790000,0.080000
14.819846,3.000000,15.000000,16391.000000,27.000000,-12.000000,1.000000,2.790000,0.000000
14.820991,-4.000000,16.000000,16380.000000,6.000000,8.000000,0.000000,2.790000,0.000000
14.822313,-8.000000,4.000000,16394.000000,2.000000,12.000000,-32.000000,2.790000,-0.080000
14.824428,9.000000,-14.000000,16383.000000,-9.000000,-15.000000,6.000000,2.790000,0.080000
14.827063,7.000000,1.000000,16410.000000,9.000000,-18.000000,3.000000,2.790000,-0.080000
14.828588,1.000000,1.000000,16399.000000,-11.000000,2.000000,-19.000000,2.790000,0.080000
14.830307,6.000000,-3.000000,16374.000000,19.000000,21.000000,11.000000,2.790000,0.000000
14.832293,5.000000,-10.000000,16368.000000,0.000000,2.000000,13.000000,2.790000,0.000000
15.048232,-6.000000,0.000000,16360.000000,12.000000,-1.000000,10.000000,2.790000,0.000000
15.055883,4.000000,2.000000,16377.000000,23.000000,-11.000000,15.000000,2.790000,0.000000
15.058156,-2.000000,-8.000000,16370.000000,0.000000,8.000000,37.000000,2.790000,0.000000
15.286843,-1.000000,-4.000000,16387.000000,1.000000,-12.000000,12.000000,2.790000,-0.080000
15.292560,-6.000000,-14.000000,16373.000000,21.000000,7.000000,2.000000,2.790000,0.000000
15.295570,15.000000,-8.000000,16371.000000,32.000000,-21.000000,6.000000,2.790000,0.000000
15.296882,17.000000,-10.000000,16386.000000,-6.000000,-1.000000,-16.000000,2.790000,0.000000
15.298254,7.000000,-5.000000,16392.000000,5.000000,2.000000,5.000000,2.790000,0.080000
15.299609,6.000000,-9.000000,16368.000000,19.000000,-12.000000,-2.000000,2.790000,0.000000
15.301243,13.000000,-3.000000,16375.000000,12.000000,8.000000,2.000000,2.790000,-0.080000
15.303092,11.000000,1.000000,16385.000000,-7.000000,4.000000,7.000000,2.790000,0.000000
15.305150,7.000000,-7.000000,16376.000000,15.000000,12.000000,12.000000,2.790000,0.080000
15.307109,1.000000,-8.000000,16387.000000,7.000000,4.000000,1.000000,2.790000,-0.080000
15.309407,1.000000,-5.000000,16363.000000,-30.000000,-11.000000,7.000000,2.790000,0.080000
15.311608,-10.000000,11.000000,16385.000000,2.000000,-9.000000,5.000000,2.790000,0.000000
15.313190,4.000000,-4.000000,16365.000000,11.000000,31.000000,0.000000,2.790000,0.000000
15.316231,-9.000000,-5.000000,16382.000000,5.000000,-4.000000,-12.000000,2.790000,0.000000
15.318032,1.000000,0.000000,16394.000000,-14.000000,-17.000000,11.000000,2.790000,0.000000
15.319311,2.000000,-3.000000,16390.000000,-4.000000,3.000000,5.000000,2.790000,-0.080000
15.509103,-9.000000,-13.000000,16388.000000,9.000000,-4.000000,4.000000,2.790000,0.080000
15.512193,1.000000,-6.000000,16398.000000,-10.000000,18.000000,-4.000000,2.790000,0.000000
15.513174,21.000000,-5.000000,16385.000000,-4.000000,-1.000000,6.000000,2.790000,0.000000
15.514204,10.000000,3.000000,16386.000000,-9.000000,8.000000,12.000000,2.790000,-0.080000
15.515981,2.000000,0.000000,16383.000000,1.000000,29.000000,3.000000,2.790000,0.080000
15.517495,4.000000,0.000000,16391.000000,9.000000,-2.000000,-4.000000,2.790000,0.000000
15.518407,-8.000000,-10.000000,16390.000000,12.000000,-15.000000,24.000000,2.790000,0.000000
15.519184,15.000000,-3.000000,16395.000000,5.000000,6.000000,2.000000,2.790000,0.000000
15.520366,9.000000,-8.000000,16370.000000,11.000000,6.000000,15.000000,2.790000,-0.080000
15.521626,-4.000000,-4.000000,16389.000000,3.000000,-10.000000,22.000000,2.790000,0.080000
15.522599,-5.000000,-8.000000,16396.000000,5.000000,20.000000,-1.000000,2.790000,0.000000
15.523368,-11.000000,8.000000,16387.000000,3.000000,-2.000000,21.000000,2.790000,-0.080000
15.524154,22.000000,13.000000,16379.000000,34.000000,9.000000,-3.000000,2.790000,0.000000
15.527074,6.000000,-11.000000,16395.000000,9.000000,-2.000000,1.000000,2.790000,0.080000
15.529318,-3.000000,2.000000,16395.000000,-4.000000,-16.000000,0.000000,2.790000,-0.080000
15.530677,15.000000,-7.000000,16386.000000,6.000000,1.000000,-14.000000,2.790000,0.000000
15.540347,-3.000000,-8.000000,16388.000000,19.000000,-17.000000,-5.000000,2.790000,0.000000
15.712837,17.000000,15.000000,16392.000000,-2.000000,7.000000,-3.000000,2.790000,0.000000
15.715169,2.000000,-16.000000,16404.000000,6.000000,13.000000,4.000000,2.790000,0.080000
15.716729,7.000000,11.000000,16379.000000,4.000000,0.000000,-3.000000,2.790000,-0.080000
15.717675,10.000000,6.000000,16384.000000,16.000000,9.000000,-15.000000,2.790000,0.000000
15.719179,-1.000000,-14.000000,16403.000000,-5.000000,0.000000,-19.000000,2.790000,0.000000
15.720175,-7.000000,6.000000,16397.000000,0.000000,11.000000,18.000000,2.790000,0.080000
15.721014,12.000000,3.000000,16394.000000,33.000000,-1.000000,14.000000,2.790000,-0.080000
15.721778,1.000000,16.000000,16411.000000,-3.000000,2.000000,-15.000000,2.790000,0.000000
15.728396,-3.000000,0.000000,16390.000000,14.000000,-5.000000,18.000000,2.790000,0.080000
15.744243,11.000000,-4.000000,16391.000000,3.000000,-14.000000,-14.000000,2.790000,0.000000
15.939559,9.000000,3.000000,16384.000000,7.000000,15.000000,-2.000000,2.790000,0.000000
15.943064,13.000000,3.000000,16382.000000,-15.000000,-4.000000,0.000000,2.790000,0.000000
15.944170,13.000000,2.000000,16390.000000,4.000000,6.000000,1.000000,2.790000,-0.080000
15.945115,-4.000000,-7.000000,16394.000000,-3.000000,9.000000,-9.000000,2.790000,0.080000
15.945961,1.000000,-7.000000,16395.000000,-7.000000,17.000000,11.000000,2.790000,-0.080000
15.948208,-4.000000,21.000000,16368.000000,9.000000,-18.000000,15.000000,2.790000,0.080000
15.950196,10.000000,3.000000,16395.000000,2.000000,15.000000,9.000000,2.790000,0.000000
15.952701,-11.000000,-4.000000,16379.000000,4.000000,11.000000,4.000000,2.790000,-0.080000
15.953722,2.000000,4.000000,16415.000000,10.000000,3.000000,25.000000,2.790000,0.000000
15.954741,-2.000000,-12.000000,16395.000000,-1.000000,-13.000000,16.000000,2.790000,0.080000
15.963011,2.000000,-5.000000,16387.000000,15.000000,-21.000000,-5.000000,2.790000,-0.080000
16.133514,-1.000000,5.000000,16385.000000,23.000000,0.000000,-5.000000,2.790000,0.000000
16.136806,-8.000000,7.000000,16391.000000,9.000000,27.000000,14.000000,2.790000,0.080000
16.137740,-4.000000,-6.000000,16396.000000,0.000000,-19.000000,-12.000000,2.790000,0.000000
16.138501,13.000000,6.000000,16393.000000,7.000000,-19.000000,-6.000000,2.790000,0.000000
16.139135,-8.000000,-3.000000,16392.000000,7.000000,-4.000000,28.000000,2.790000,0.000000
16.139910,-11.000000,5.000000,16396.000000,12.000000,6.000000,9.000000,2.790000,0.000000
16.140772,4.000000,-11.000000,16386.000000,7.000000,20.000000,8.000000,2.790000,0.000000
16.141530,3.000000,-2.000000,16391.000000,-12.000000,25.000000,5.000000,2.790000,0.000000
16.149843,5.000000,-1.000000,16387.000000,2.000000,-26.000000,9.000000,2.790000,0.000000
16.165833,3.000000,-3.000000,16376.000000,-11.000000,18.000000,2.000000,2.790000,0.000000
16.351255,2.000000,-4.000000,16391.000000,-1.000000,16.000000,-11.000000,2.790000,0.000000
16.354362,14.000000,-15.000000,16401.000000,43.000000,-2.000000,6.000000,2.790000,0.000000
16.356389,1.000000,-3.000000,16391.000000,-10.000000,-18.000000,-9.000000,2.790000,0.000000
16.358268,10.000000,-10.000000,16399.000000,7.000000,-13.000000,2.000000,2.790000,0.000000
16.359571,8.000000,1.000000,16395.000000,-1.000000,-6.000000,3.000000,2.790000,0.000000
16.360945,-9.000000,0.000000,16398.000000,19.000000,-9.000000,8.000000,2.790000,-0.080000
16.361886,-4.000000,3.000000,16410.000000,6.000000,-3.000000,-9.000000,2.790000,0.080000
16.362599,8.000000,-4.000000,16410.000000,-3.000000,11.000000,7.000000,2.790000,0.000000
16.363414,8.000000,-2.000000,16401.000000,10.000000,-5.000000,1.000000,2.790000,0.000000
16.367392,16.000000,6.000000,16389.000000,4.000000,-22.000000,-10.000000,2.790000,-0.080000
16.561322,3.000000,-9.000000,16397.000000,5.000000,4.000000,-8.000000,2.790000,0.080000
16.567885,3.000000,-4.000000,16396.000000,19.000000,20.000000,20.000000,2.790000,-0.080000
16.571417,4.000000,-10.000000,16390.000000,3.000000,10.000000,15.000000,2.790000,0.000000
16.572974,5.000000,2.000000,16394.000000,1.000000,-9.000000,-13.000000,2.790000,0.080000
16.574178,18.000000,-13.000000,16393.000000,-6.000000,-7.000000,-6.000000,2.790000,-0.080000
16.575958,8.000000,4.000000,16407.000000,10.000000,-11.000000,-5.000000,2.790000,0.080000
16.577423,7.000000,1.000000,16397.000000,0.000000,2.000000,12.000000,2.790000,0.000000
16.578685,0.000000,1.000000,16396.000000,2.000000,-4.000000,16.000000,2.790000,0.000000
16.579958,7.000000,-1.000000,16399.000000,4.000000,12.000000,8.000000,2.790000,0.000000
16.581837,-6.000000,-6.000000,16398.000000,14.000000,1.000000,-3.000000,2.790000,0.000000
16.584666,1.000000,12.000000,16396.000000,-2.000000,-20.000000,1.000000,2.790000,-0.080000
16.762178,11.000000,-6.000000,16414.000000,13.000000,3.000000,10.000000,2.790000,0.080000
16.764733,8.000000,-10.000000,16383.000000,-10.000000,26.000000,7.000000,2.790000,-0.080000
16.766095,15.000000,0.000000,16401.000000,17.000000,5.000000,7.000000,2.790000,0.000000
16.767200,2.000000,-1.000000,16395.000000,-4.000000,9.000000,-6.000000,2.790000,0.000000
16.768270,12.000000,-15.000000,16415.000000,4.000000,-1.000000,12.000000,2.790000,0.080000
16.769325,-5.000000,-5.000000,16404.000000,34.000000,-24.000000,5.000000,2.790000,-0.080000
16.770389,3.000000,2.000000,16397.000000,-5.000000,9.000000,16.000000,2.790000,0.080000
16.773020,-5.000000,1.000000,16396.000000,13.000000,7.000000,14.000000,2.790000,0.000000
16.775875,11.000000,-1.000000,16397.000000,24.000000,-11.000000,13.000000,2.790000,-0.080000
16.787596,-2.000000,-2.000000,16399.000000,0.000000,4.000000,17.000000,2.790000,0.000000
16.966112,1.000000,5.000000,16400.000000,-3.000000,-3.000000,8.000000,2.790000,0.080000
16.969615,11.000000,-8.000000,16394.000000,-21.000000,31.000000,-1.000000,2.790000,0.000000
16.970638,0.000000,6.000000,16410.000000,-21.000000,19.000000,11.000000,2.790000,0.000000
16.971645,8.000000,-4.000000,16403.000000,0.000000,1.000000,-5.000000,2.790000,-0.080000
16.973444,0.000000,-5.000000,16392.000000,13.000000,15.000000,7.000000,2.790000,0.000000
16.975229,15.000000,-6.000000,16398.000000,2.000000,6.000000,8.000000,2.790000,0.000000
16.977473,1.000000,-4.000000,16390.000000,40.000000,25.000000,-19.000000,2.790000,0.000000
16.980255,18.000000,-6.000000,16390.000000,29.000000,-12.000000,8.000000,2.790000,0.080000
16.982688,12.000000,5.000000,16399.000000,17.000000,-6.000000,7.000000,2.790000,-0.080000
16.988175,-1.000000,-13.000000,16393.000000,4.000000,24.000000,2.000000,2.790000,0.080000
17.162762,-10.000000,-3.000000,16392.000000,19.000000,-12.000000,9.000000,2.790000,0.000000
17.168652,16.000000,14.000000,16382.000000,2.000000,29.000000,5.000000,2.790000,-0.080000
17.171257,11.000000,-1.000000,16400.000000,16.000000,-27.000000,-9.000000,2.790000,0.000000
17.172550,4.000000,-15.000000,16403.000000,-19.000000,11.000000,-11.000000,2.790000,0.000000
17.174143,-4.000000,-4.000000,16391.000000,5.000000,3.000000,1.000000,2.790000,0.080000
17.176838,4.000000,-2.000000,16394.000000,29.000000,-8.000000,-4.000000,2.790000,0.000000
17.178102,-5.000000,6.000000,16407.000000,0.000000,7.000000,19.000000,2.790000,-0.080000
17.179141,4.000000,19.000000,16384.000000,-18.000000,-2.000000,20.000000,2.790000,0.080000
17.180004,3.000000,-3.000000,16392.000000,-5.000000,-3.000000,8.000000,2.790000,0.000000
17.190013,-2.000000,-8.000000,16386.000000,24.000000,7.000000,-5.000000,2.790000,-0.080000
17.368291,5.000000,1.000000,16398.000000,-17.000000,-14.000000,-1.000000,2.790000,0.000000
17.371236,5.000000,-11.000000,16395.000000,29.000000,-10.000000,21.000000,2.790000,0.080000
17.373911,-1.000000,-8.000000,16391.000000,-17.000000,15.000000,-1.000000,2.790000,-0.080000
17.375551,9.000000,4.000000,16392.000000,7.000000,-28.000000,-1.000000,2.790000,0.080000
17.377186,6.000000,-4.000000,16383.000000,0.000000,0.000000,20.000000,2.790000,-0.080000
17.378307,6.000000,12.000000,16392.000000,-37.000000,17.000000,-2.000000,2.790000,0.000000
17.379751,8.000000,-4.000000,16407.000000,-27.000000,26.000000,8.000000,2.790000,0.080000
17.382575,0.000000,-10.000000,16397.000000,14.000000,-16.000000,-22.000000,2.790000,-0.080000
17.384674,5.000000,-5.000000,16409.000000,0.000000,-8.000000,-10.000000,2.790000,0.080000
17.392058,-2.000000,14.000000,16393.000000,24.000000,-9.000000,5.000000,2.790000,0.000000
17.644794,11.000000,0.000000,16402.000000,17.000000,9.000000,-11.000000,2.790000,-0.080000
17.651877,10.000000,1.000000,16401.000000,-16.000000,-5.000000,-1.000000,2.790000,0.080000
17.655746,11.000000,-11.000000,16399.000000,-3.000000,2.000000,18.000000,2.790000,0.000000
17.658936,0.000000,-4.000000,16400.000000,2.000000,6.000000,-7.000000,2.790000,-0.080000
17.662313,0.000000,-5.000000,16393.000000,28.000000,-14.000000,0.000000,2.790000,0.080000
17.665394,5.000000,-10.000000,16391.000000,-3.000000,7.000000,10.000000,2.790000,-0.080000
17.668319,-8.000000,-4.000000,16389.000000,10.000000,-6.000000,-10.000000,2.790000,0.000000
17.943558,6.000000,-9.000000,16409.000000,-6.000000,22.000000,2.000000,2.790000,0.080000
17.949493,1.000000,-6.000000,16399.000000,-11.000000,-13.000000,-13.000000,2.790000,-0.080000
17.950657,4.000000,-2.000000,16395.000000,3.000000,-7.000000,14.000000,2.790000,0.080000
17.953016,19.000000,4.000000,16403.000000,-5.000000,-3.000000,-8.000000,2.790000,0.000000
17.954636,1.000000,-11.000000,16409.000000,33.000000,-5.000000,11.000000,2.790000,0.000000
17.957534,8.000000,-3.000000,16410.000000,-8.000000,4.000000,-13.000000,2.790000,-0.080000
17.960515,7.000000,-6.000000,16393.000000,-8.000000,-29.000000,0.000000,2.790000,0.080000
17.961969,4.000000,3.000000,16393.000000,-14.000000,6.000000,-5.000000,2.790000,0.000000
17.963349,1.000000,-9.000000,16395.000000,1.000000,-5.000000,-5.000000,2.790000,-0.080000
17.966464,20.000000,-3.000000,16409.000000,23.000000,-1.000000,-1.000000,2.790000,0.000000
17.969401,13.000000,4.000000,16405.000000,18.000000,-16.000000,-4.000000,2.790000,0.000000
17.972458,7.000000,-6.000000,16405.000000,-1.000000,9.000000,15.000000,2.790000,0.080000
18.267979,1.000000,1.000000,16398.000000,14.000000,-14.000000,4.000000,2.790000,0.000000
18.270917,-3.000000,4.000000,16415.000000,4.000000,-8.000000,2.000000,2.790000,-0.080000
18.273280,15.000000,-1.000000,16384.000000,-7.000000,-10.000000,5.000000,2.790000,0.080000
18.275314,5.000000,6.000000,16407.000000,-5.000000,14.000000,-22.000000,2.790000,-0.080000
18.276900,0.000000,-1.000000,16418.000000,-4.000000,5.000000,-3.000000,2.790000,0.000000
18.278291,4.000000,-11.000000,16401.000000,-4.000000,20.000000,3.000000,2.790000,0.080000
18.279483,16.000000,-18.000000,16403.000000,-4.000000,0.000000,-11.000000,2.790000,0.000000
18.281028,0.000000,-12.000000,16405.000000,-15.000000,-10.000000,4.000000,2.790000,0.000000
18.283557,2.000000,-13.000000,16393.000000,-13.000000,-5.000000,-8.000000,2.790000,-0.080000
18.286252,7.000000,-1.000000,16392.000000,10.000000,-11.000000,3.000000,2.790000,0.080000
18.289338,3.000000,0.000000,16392.000000,12.000000,-3.000000,-6.000000,2.790000,0.000000
18.291246,5.000000,-9.000000,16404.000000,21.000000,22.000000,-8.000000,2.790000,0.000000
18.294740,11.000000,-3.000000,16407.000000,9.000000,-2.000000,8.000000,2.790000,0.000000
18.620253,12.000000,4.000000,16399.000000,1.000000,10.000000,5.000000,2.790000,-0.080000
18.623251,10.000000,14.000000,16407.000000,5.000000,16.000000,-4.000000,2.790000,0.000000
18.624573,4.000000,-14.000000,16401.000000,2.000000,8.000000,-21.000000,2.790000,0.000000
18.625746,2.000000,5.000000,16406.000000,0.000000,-10.000000,11.000000,2.790000,0.080000
18.626933,2.000000,-8.000000,16398.000000,19.000000,14.000000,-4.000000,2.790000,0.000000
18.628322,-12.000000,-6.000000,16411.000000,-10.000000,-8.000000,16.000000,2.790000,0.000000
18.631161,8.000000,-12.000000,16408.000000,30.000000,5.000000,3.000000,2.790000,0.000000
18.634144,7.000000,2.000000,16390.000000,-12.000000,-4.000000,-2.000000,2.790000,0.000000
18.636779,5.000000,-1.000000,16398.000000,10.000000,15.000000,10.000000,2.790000,0.000000
18.639720,-1.000000,9.000000,16399.000000,22.000000,26.000000,-4.000000,2.790000,0.000000
18.642654,1.000000,-15.000000,16405.000000,22.000000,-8.000000,11.000000,2.790000,-0.080000
18.912091,0.000000,-1.000000,16398.000000,-7.000000,-19.000000,16.000000,2.790000,0.080000
18.918727,5.000000,-3.000000,16400.000000,8.000000,-17.000000,-11.000000,2.790000,0.000000
18.920994,3.000000,-15.000000,16413.000000,12.000000,-24.000000,11.000000,2.790000,0.000000
18.924002,4.000000,-4.000000,16384.000000,4.000000,-4.000000,5.000000,2.790000,-0.080000
18.927015,16.000000,-5.000000,16405.000000,-20.000000,6.000000,-16.000000,2.790000,0.000000
18.930009,5.000000,-3.000000,16395.000000,-7.000000,7.000000,-2.000000,2.790000,0.000000
18.933140,-7.000000,3.000000,16402.000000,0.000000,-8.000000,17.000000,2.790000,0.080000
18.934624,1.000000,-1.000000,16399.000000,18.000000,-13.000000,12.000000,2.790000,-0.080000
18.935739,0.000000,6.000000,16396.000000,-13.000000,-3.000000,21.000000,2.790000,0.000000
19.204224,14.000000,-2.000000,16393.000000,29.000000,-19.000000,1.000000,2.790000,0.080000
19.212219,0.000000,-4.000000,16395.000000,13.000000,-2.000000,3.000000,2.790000,0.000000
19.215772,1.000000,-13.000000,16389.000000,-4.000000,-1.000000,7.000000,2.790000,0.000000
19.218371,17.000000,3.000000,16396.000000,-4.000000,6.000000,-2.000000,2.790000,0.000000
19.220102,10.000000,-2.000000,16383.000000,-3.000000,-7.000000,-7.000000,2.790000,0.000000
19.223346,11.000000,-2.000000,16385.000000,-18.000000,7.000000,0.000000,2.790000,-0.080000
19.224996,1.000000,-7.000000,16391.000000,11.000000,24.000000,-4.000000,2.790000,0.080000
19.227039,11.000000,-5.000000,16397.000000,24.000000,-24.000000,11.000000,2.790000,-0.080000
19.403642,-5.000000,0.000000,16400.000000,16.000000,-3.000000,10.000000,2.790000,0.080000
19.407716,-3.000000,8.000000,16391.000000,11.000000,-9.000000,-7.000000,2.790000,0.000000
19.410526,10.000000,3.000000,16391.000000,16.000000,-18.000000,-7.000000,2.790000,-0.080000
19.413245,11.000000,-6.000000,16393.000000,11.000000,9.000000,-7.000000,2.790000,0.080000
19.416042,5.000000,1.000000,16396.000000,-4.000000,-3.000000,10.000000,2.790000,-0.080000
19.417663,5.000000,-4.000000,16394.000000,6.000000,-18.000000,0.000000,2.790000,0.080000
19.419958,5.000000,1.000000,16386.000000,-8.000000,-1.000000,6.000000,2.790000,0.000000
19.423423,4.000000,3.000000,16385.000000,-19.000000,-3.000000,-23.000000,2.790000,-0.080000
19.427079,-7.000000,7.000000,16396.000000,-1.000000,-6.000000,-3.000000,2.790000,0.080000
19.428902,0.000000,-5.000000,16391.000000,-3.000000,5.000000,-11.000000,2.790000,0.000000
19.430054,-6.000000,5.000000,16389.000000,-4.000000,-9.000000,0.000000,2.790000,0.000000
19.432386,10.000000,13.000000,16390.000000,-2.000000,21.000000,-10.000000,2.790000,-0.080000
19.435185,8.000000,-3.000000,16394.000000,9.000000,5.000000,6.000000,2.790000,0.080000
19.641785,7.000000,-3.000000,16380.000000,8.000000,-9.000000,4.000000,2.790000,-0.080000
19.649298,-7.000000,-3.000000,16387.000000,11.000000,-1.000000,10.000000,2.790000,0.080000
19.652455,3.000000,-6.000000,16384.000000,19.000000,-4.000000,19.000000,2.790000,-0.080000
19.653959,13.000000,3.000000,16404.000000,-7.000000,19.000000,-7.000000,2.790000,0.080000
19.655224,3.000000,-3.000000,16402.000000,-10.000000,-3.000000,-3.000000,2.790000,0.000000
19.656642,-3.000000,-11.000000,16393.000000,-2.000000,-11.000000,-8.000000,2.790000,-0.080000
19.658848,7.000000,7.000000,16391.000000,-2.000000,-23.000000,-6.000000,2.790000,0.080000
19.660989,1.000000,2.000000,16401.000000,21.000000,3.000000,-9.000000,2.790000,0.000000
19.662455,14.000000,-1.000000,16383.000000,-8.000000,-12.000000,7.000000,2.790000,0.000000
19.844653,-4.000000,2.000000,16393.000000,12.000000,-11.000000,-13.000000,2.790000,0.000000
19.850195,1.000000,3.000000,16394.000000,-28.000000,-9.000000,-16.000000,2.790000,-0.080000
19.851436,15.000000,-12.000000,16392.000000,-9.000000,19.000000,1.000000,2.790000,0.080000
19.852558,2.000000,-6.000000,16379.000000,33.000000,-6.000000,-16.000000,2.790000,-0.080000
19.853583,-6.000000,8.000000,16389.000000,6.000000,1.000000,-1.000000,2.790000,0.000000
19.854621,3.000000,6.000000,16386.000000,1.000000,-23.000000,-1.000000,2.790000,0.000000
19.856107,14.000000,-8.000000,16392.000000,4.000000,-16.000000,0.000000,2.790000,0.000000
19.857450,3.000000,-2.000000,16379.000000,-10.000000,29.000000,6.000000,2.790000,0.000000
19.860243,8.000000,-12.000000,16385.000000,21.000000,10.000000,-7.000000,2.790000,0.080000
19.863425,19.000000,-4.000000,16392.000000,10.000000,-36.000000,11.000000,2.790000,-0.080000
19.865912,1.000000,0.000000,16384.000000,-5.000000,9.000000,9.000000,2.790000,0.080000
19.868958,11.000000,-14.000000,16389.000000,10.000000,-10.000000,3.000000,2.790000,0.000000
19.871592,12.000000,-12.000000,16396.000000,9.000000,-9.000000,-2.000000,2.790000,-0.080000
19.874344,-3.000000,15.000000,16390.000000,45.000000,0.000000,12.000000,2.790000,0.000000
19.876351,6.000000,1.000000,16385.000000,15.000000,-18.000000,-2.000000,2.790000,0.000000
20.042834,4.000000,3.000000,16378.000000,-6.000000,1.000000,-8.000000,2.790000,0.080000
20.047942,3.000000,-13.000000,16388.000000,4.000000,10.000000,13.000000,2.790000,0.000000
20.050239,-3.000000,-2.000000,16373.000000,7.000000,-11.000000,2.000000,2.790000,0.000000
20.053082,11.000000,-1.000000,16388.000000,-10.000000,-3.000000,7.000000,2.790000,0.000000
20.056156,-4.000000,3.000000,16382.000000,23.000000,-10.000000,12.000000,2.790000,0.000000
20.058742,6.000000,-2.000000,16394.000000,-13.000000,29.000000,-27.000000,2.790000,-0.080000
20.060438,5.000000,3.000000,16386.000000,16.000000,-1.000000,0.000000,2.790000,0.000000
20.062230,4.000000,-10.000000,16387.000000,18.000000,5.000000,-4.000000,2.790000,0.080000
20.063282,3.000000,10.000000,16389.000000,19.000000,-1.000000,11.000000,2.790000,0.000000
20.064345,9.000000,3.000000,16390.000000,1.000000,-9.000000,5.000000,2.790000,0.000000
20.067674,-4.000000,-1.000000,16391.000000,28.000000,-3.000000,15.000000,2.790000,0.000000
20.069695,1.000000,-10.000000,16396.000000,22.000000,12.000000,14.000000,2.790000,0.000000
20.070627,11.000000,-2.000000,16387.000000,-7.000000,0.000000,-14.000000,2.790000,0.000000
20.071375,18.000000,8.000000,16391.000000,2.000000,6.000000,-9.000000,2.790000,-0.080000
20.072018,7.000000,-5.000000,16385.000000,5.000000,-13.000000,24.000000,2.790000,0.080000
20.072752,3.000000,0.000000,16388.000000,-5.000000,14.000000,11.000000,2.790000,-0.080000
20.073576,8.000000,2.000000,16393.000000,4.000000,-6.000000,-19.000000,2.790000,0.000000
20.074285,17.000000,-12.000000,16399.000000,10.000000,1.000000,-1.000000,2.790000,0.080000
20.274625,3.000000,9.000000,16389.000000,-5.000000,3.000000,-3.000000,2.790000,0.000000
20.279801,-3.000000,-4.000000,16398.000000,-4.000000,-3.000000,-11.000000,2.790000,-0.080000
20.282925,13.000000,-12.000000,16393.000000,-13.000000,9.000000,5.000000,2.790000,0.000000
20.286355,7.000000,6.000000,16398.000000,-1.000000,-14.000000,19.000000,2.790000,0.080000
20.289501,2.000000,-2.000000,16386.000000,16.000000,-6.000000,1.000000,2.790000,-0.080000
20.291055,20.000000,-5.000000,16404.000000,12.000000,-17.000000,7.000000,2.790000,0.000000
20.292725,3.000000,3.000000,16388.000000,5.000000,6.000000,5.000000,2.790000,0.080000
20.294189,15.000000,5.000000,16409.000000,30.000000,-6.000000,4.000000,2.790000,0.000000
20.298528,7.000000,-1.000000,16385.000000,34.000000,-16.000000,9.000000,2.790000,-0.080000
20.483137,-2.000000,3.000000,16396.000000,-8.000000,-11.000000,-2.000000,2.790000,0.000000
20.488326,6.000000,-2.000000,16400.000000,-14.000000,-17.000000,13.000000,2.790000,0.080000
20.490248,2.000000,-4.000000,16395.000000,2.000000,-9.000000,8.000000,2.790000,-0.080000
20.491343,9.000000,3.000000,16398.000000,22.000000,-15.000000,15.000000,2.790000,0.000000
20.492316,1.000000,2.000000,16388.000000,-9.000000,12.000000,-7.000000,2.790000,0.000000
20.493218,19.000000,1.000000,16401.000000,-8.000000,-12.000000,-23.000000,2.790000,0.080000
20.494873,0.000000,-5.000000,16376.000000,11.000000,-1.000000,-28.000000,2.790000,0.000000
20.497763,-2.000000,-1.000000,16393.000000,3.000000,-16.000000,-1.000000,2.790000,0.000000
20.500624,4.000000,-15.000000,16402.000000,1.000000,1.000000,-6.000000,2.790000,-0.080000
20.503333,1.000000,6.000000,16405.000000,7.000000,11.000000,-4.000000,2.790000,0.000000
20.504462,6.000000,-7.000000,16379.000000,21.000000,17.000000,2.000000,2.790000,0.000000
20.505334,18.000000,-1.000000,16408.000000,1.000000,10.000000,-14.000000,2.790000,0.080000
20.506024,14.000000,-12.000000,16407.000000,-23.000000,8.000000,5.000000,2.790000,0.000000
20.506800,-5.000000,10.000000,16400.000000,13.000000,12.000000,8.000000,2.790000,0.000000
20.507553,-17.000000,-1.000000,16399.000000,-1.000000,-12.000000,18.000000,2.790000,0.000000
20.508382,-3.000000,1.000000,16395.000000,-29.000000,-22.000000,-17.000000,2.790000,0.000000
20.510427,1.000000,-16.000000,16407.000000,-1.000000,-12.000000,2.000000,2.790000,0.000000
20.512481,13.000000,10.000000,16393.000000,9.000000,-3.000000,8.000000,2.790000,-0.080000
20.686317,-4.000000,2.000000,16393.000000,0.000000,-8.000000,2.000000,2.790000,0.000000
20.691507,2.000000,-9.000000,16400.000000,8.000000,-3.000000,-8.000000,2.790000,0.000000
20.692655,7.000000,3.000000,16390.000000,-14.000000,9.000000,3.000000,2.790000,0.000000
20.693582,10.000000,-9.000000,16384.000000,0.000000,12.000000,-2.000000,2.790000,0.080000
20.694745,-11.000000,7.000000,16393.000000,10.000000,-1.000000,19.000000,2.790000,-0.080000
20.697730,3.000000,-9.000000,16411.000000,16.000000,20.000000,-3.000000,2.790000,0.080000
20.700154,5.000000,-19.000000,16398.000000,13.000000,6.000000,-15.000000,2.790000,-0.080000
20.702458,4.000000,0.000000,16386.000000,3.000000,-9.000000,-3.000000,2.790000,0.000000
20.705578,3.000000,3.000000,16397.000000,-15.000000,5.000000,-7.000000,2.790000,0.000000
20.708089,10.000000,1.000000,16390.000000,-13.000000,3.000000,-2.000000,2.790000,0.080000
20.710200,-1.000000,-4.000000,16401.000000,-13.000000,9.000000,-5.000000,2.790000,-0.080000
20.711972,10.000000,-3.000000,16407.000000,2.000000,-6.000000,1.000000,2.790000,0.080000
20.713465,-4.000000,-2.000000,16403.000000,22.000000,14.000000,26.000000,2.790000,0.000000
20.716780,3.000000,-2.000000,16404.000000,-1.000000,-3.000000,12.000000,2.790000,-0.080000
20.912623,25.000000,-6.000000,16396.000000,12.000000,-7.000000,3.000000,2.790000,0.080000
20.917181,11.000000,10.000000,16388.000000,12.000000,-9.000000,12.000000,2.790000,-0.080000
20.920090,1.000000,6.000000,16388.000000,-23.000000,29.000000,-13.000000,2.790000,0.080000
20.922812,16.000000,-4.000000,16393.000000,3.000000,23.000000,-11.000000,2.790000,0.000000
20.925496,9.000000,-12.000000,16392.000000,-6.000000,-14.000000,-8.000000,2.790000,0.000000
20.928110,1.000000,-18.000000,16400.000000,17.000000,-9.000000,-4.000000,2.790000,0.000000
20.929642,-4.000000,-1.000000,16393.000000,5.000000,5.000000,-17.000000,2.790000,-0.080000
20.931326,17.000000,1.000000,16397.000000,7.000000,-5.000000,-5.000000,2.790000,0.000000
20.934565,-3.000000,-16.000000,16392.000000,22.000000,14.000000,2.000000,2.790000,0.080000
20.936910,7.000000,7.000000,16392.000000,2.000000,8.000000,18.000000,2.790000,-0.080000
20.938414,2.000000,3.000000,16390.000000,-17.000000,18.000000,-3.000000,2.790000,0.000000
20.939305,-4.000000,-3.000000,16388.000000,-22.000000,6.000000,-8.000000,2.790000,0.000000
20.940069,1.000000,-10.000000,16392.000000,-22.000000,-13.000000,4.000000,2.790000,0.080000
20.940853,25.000000,-9.000000,16389.000000,0.000000,1.000000,-5.000000,2.790000,0.000000
20.941624,8.000000,7.000000,16391.000000,-10.000000,15.000000,-9.000000,2.790000,0.000000
20.943641,-5.000000,3.000000,16397.000000,12.000000,-16.000000,26.000000,2.790000,0.000000
21.138968,10.000000,-10.000000,16381.000000,15.000000,1.000000,6.000000,2.790000,-0.080000
21.141658,12.000000,0.000000,16389.000000,7.000000,6.000000,12.000000,2.790000,0.000000
21.142705,-8.000000,-2.000000,16385.000000,-12.000000,7.000000,-19.000000,2.790000,0.080000
21.143717,6.000000,3.000000,16393.000000,-17.000000,-11.000000,-7.000000,2.790000,0.000000
21.145112,17.000000,-2.000000,16391.000000,14.000000,1.000000,9.000000,2.790000,-0.080000
21.146911,8.000000,5.000000,16402.000000,-4.000000,2.000000,-12.000000,2.790000,0.080000
21.150709,11.000000,-1.000000,16395.000000,-9.000000,-26.000000,-15.000000,2.790000,0.000000
21.152118,-6.000000,-3.000000,16384.000000,-10.000000,2.000000,-7.000000,2.790000,0.000000
21.153620,0.000000,0.000000,16384.000000,-11.000000,-26.000000,26.000000,2.790000,0.000000
21.154987,12.000000,-4.000000,16402.000000,-18.000000,-5.000000,6.000000,2.790000,-0.080000
21.155962,14.000000,-7.000000,16402.000000,4.000000,-6.000000,-2.000000,2.790000,0.000000
21.156753,9.000000,-9.000000,16381.000000,-2.000000,8.000000,17.000000,2.790000,0.080000
21.157615,9.000000,11.000000,16385.000000,-10.000000,-18.000000,-10.000000,2.790000,0.000000
21.158335,14.000000,34.000000,16385.000000,2.000000,-6.000000,-4.000000,2.790000,0.000000
21.159103,3.000000,4.000000,16404.000000,-6.000000,-19.000000,-7.000000,2.790000,0.000000
21.159847,-9.000000,-25.000000,16388.000000,-44.000000,14.000000,-7.000000,2.790000,0.000000
21.334797,-6.000000,-38.000000,16399.000000,8.000000,18.000000,-15.000000,2.790000,0.000000
21.339483,17.000000,-6.000000,16398.000000,1.000000,-5.000000,-12.000000,2.790000,0.000000
21.340725,27.000000,11.000000,16397.000000,5.000000,3.000000,12.000000,2.790000,-0.080000
21.341909,12.000000,21.000000,16395.000000,-10.000000,-3.000000,20.000000,2.790000,0.080000
21.343122,-10.000000,15.000000,16399.000000,5.000000,-29.000000,16.000000,2.790000,-0.080000
21.344220,-17.000000,0.000000,16397.000000,-6.000000,1.000000,-2.000000,2.790000,0.000000
21.345084,13.000000,-2.000000,16399.000000,7.000000,-4.000000,12.000000,2.790000,0.080000
21.345804,27.000000,-13.000000,16395.000000,-1.000000,-24.000000,-17.000000,2.790000,0.000000
21.346614,4.000000,-11.000000,16388.000000,-32.000000,-16.000000,-2.000000,2.790000,-0.080000
21.349563,-10.000000,-6.000000,16389.000000,19.000000,-1.000000,3.000000,2.790000,0.000000
21.364916,-5.000000,4.000000,16407.000000,-5.000000,4.000000,-12.000000,2.790000,0.080000
21.533187,-9.000000,46.000000,16401.000000,15.000000,2.000000,-4.000000,2.790000,0.000000
21.537615,16.000000,21.000000,16397.000000,21.000000,-6.000000,1.000000,2.790000,-0.080000
21.540231,-12.000000,-16.000000,16394.000000,2.000000,-11.000000,-3.000000,2.790000,0.080000
21.541430,2.000000,-32.000000,16385.000000,-6.000000,16.000000,16.000000,2.790000,-0.080000
21.542366,19.000000,-20.000000,16400.000000,7.000000,0.000000,0.000000,2.790000,0.080000
21.543196,15.000000,-1.000000,16393.000000,-7.000000,0.000000,4.000000,2.790000,0.000000
21.544074,-6.000000,19.000000,16402.000000,14.000000,-2.000000,4.000000,2.790000,0.000000
21.544911,11.000000,9.000000,16382.000000,-18.000000,0.000000,1.000000,2.790000,0.000000
21.550797,0.000000,11.000000,16395.000000,16.000000,0.000000,11.000000,2.790000,0.000000
21.566072,3.000000,-23.000000,16385.000000,34.000000,-1.000000,6.000000,2.790000,0.000000
21.774847,11.000000,-8.000000,16395.000000,17.000000,-12.000000,6.000000,2.790000,0.000000
21.780954,5.000000,-12.000000,16395.000000,15.000000,13.000000,17.000000,2.790000,-0.080000
21.784329,26.000000,16.000000,16393.000000,18.000000,9.000000,13.000000,2.790000,0.000000
21.787368,8.000000,-1.000000,16383.000000,-13.000000,-23.000000,-29.000000,2.790000,0.080000
21.790185,-24.000000,-25.000000,16394.000000,-5.000000,3.000000,-2.000000,2.790000,0.000000
21.792806,-6.000000,234.000000,16379.000000,12.000000,-20.000000,19.000000,2.790000,-0.080000
21.797363,37.000000,10.000000,16398.000000,25.000000,-4.000000,-23.000000,2.790000,0.080000
22.001194,8.000000,-9.000000,16404.000000,11.000000,11.000000,14.000000,2.790000,0.000000
22.004554,-1.000000,3.000000,16391.000000,31.000000,0.000000,16.000000,2.790000,0.000000
22.006008,-13.000000,20.000000,16396.000000,10.000000,11.000000,9.000000,2.790000,0.000000
22.007572,11.000000,9.000000,16384.000000,10.000000,-3.000000,6.000000,2.790000,0.000000
22.008697,19.000000,-7.000000,16373.000000,-4.000000,27.000000,-16.000000,2.790000,0.000000
22.009643,10.000000,-26.000000,16380.000000,-2.000000,-4.000000,0.000000,2.790000,0.000000
22.010473,-5.000000,-23.000000,16386.000000,-2.000000,-7.000000,6.000000,2.790000,0.000000
22.011268,-18.000000,20.000000,16382.000000,1.000000,-1.000000,-25.000000,2.790000,0.000000
22.012082,-3.000000,21.000000,16388.000000,25.000000,-17.000000,-4.000000,2.790000,0.000000
22.012850,35.000000,30.000000,16383.000000,6.000000,-2.000000,14.000000,2.790000,0.000000
22.013824,13.000000,15.000000,16391.000000,26.000000,-2.000000,0.000000,2.790000,-0.080000
22.015236,-2.000000,-10.000000,16395.000000,1.000000,13.000000,-13.000000,2.790000,0.080000
22.016880,11.000000,-24.000000,16397.000000,7.000000,3.000000,9.000000,2.790000,0.000000
22.018055,10.000000,-15.000000,16386.000000,15.000000,-30.000000,-10.000000,2.790000,-0.080000
22.020616,-2.000000,-6.000000,16382.000000,0.000000,-22.000000,-3.000000,2.790000,0.080000
22.200620,4.000000,-7.000000,16384.000000,10.000000,-16.000000,-2.000000,2.790000,0.000000
22.204993,3.000000,5.000000,16388.000000,4.000000,25.000000,-14.000000,2.790000,-0.080000
22.206945,1.000000,1.000000,16385.000000,-28.000000,-1.000000,-22.000000,2.790000,0.080000
22.208040,13.000000,1.000000,16382.000000,11.000000,12.000000,28.000000,2.790000,-0.080000
22.208854,12.000000,-6.000000,16385.000000,-6.000000,-4.000000,-7.000000,2.790000,0.080000
22.209556,1.000000,-20.000000,16391.000000,16.000000,26.000000,-14.000000,2.790000,0.000000
22.210245,-2.000000,-9.000000,16377.000000,18.000000,-13.000000,-4.000000,2.790000,0.000000
22.210975,-5.000000,1.000000,16389.000000,-5.000000,8.000000,-7.000000,2.790000,0.000000
22.211686,5.000000,-19.000000,16393.000000,19.000000,0.000000,0.000000,2.790000,-0.080000
22.212470,-8.000000,-5.000000,16367.000000,23.000000,-13.000000,5.000000,2.790000,0.080000
22.219553,-22.000000,-41.000000,16384.000000,15.000000,4.000000,-18.000000,2.790000,0.000000
22.421095,26.000000,25.000000,16391.000000,3.000000,14.000000,0.000000,2.790000,-0.080000
22.425446,32.000000,14.000000,16390.000000,26.000000,0.000000,23.000000,2.790000,0.080000
22.426433,-12.000000,-22.000000,16402.000000,3.000000,-1.000000,29.000000,2.790000,0.000000
22.427229,-39.000000,-39.000000,16369.000000,10.000000,0.000000,-10.000000,2.790000,-0.080000
22.428093,-12.000000,-38.000000,16389.000000,18.000000,13.000000,-14.000000,2.790000,0.000000
22.428976,23.000000,-20.000000,16391.000000,5.000000,1.000000,-19.000000,2.790000,0.080000
22.429858,24.000000,3.000000,16390.000000,40.000000,-24.000000,-1.000000,2.790000,-0.080000
22.431788,17.000000,4.000000,16394.000000,1.000000,2.000000,17.000000,2.790000,0.000000
22.435248,-7.000000,17.000000,16395.000000,9.000000,-8.000000,7.000000,2.790000,0.080000
22.438264,-8.000000,6.000000,16390.000000,-22.000000,19.000000,-5.000000,2.790000,0.000000
22.448888,34.000000,8.000000,16364.000000,12.000000,-28.000000,-10.000000,2.790000,0.000000
22.631524,29.000000,-25.000000,16388.000000,5.000000,-16.000000,-2.000000,2.790000,0.000000
22.639138,-13.000000,-21.000000,16392.000000,13.000000,22.000000,12.000000,2.790000,-0.080000
22.642612,-18.000000,-12.000000,16393.000000,13.000000,22.000000,13.000000,2.790000,0.000000
22.644664,-11.000000,24.000000,16387.000000,22.000000,-15.000000,-6.000000,2.760000,-1.530000
22.646176,18.000000,39.000000,16387.000000,-22.000000,18.000000,-12.000000,2.650000,-5.220000
22.648468,15.000000,19.000000,16388.000000,15.000000,24.000000,-21.000000,2.510000,-7.060000
22.649996,10.000000,-19.000000,16395.000000,-8.000000,-13.000000,-7.000000,2.360000,-7.670000
22.652325,-10.000000,-23.000000,16395.000000,-2.000000,-12.000000,-7.000000,2.200000,-7.820000
22.654410,5.000000,-14.000000,16369.000000,-4.000000,17.000000,9.000000,2.050000,-7.820000
22.657176,11.000000,14.000000,16398.000000,41.000000,-18.000000,3.000000,1.870000,-8.820000
22.879676,9.000000,13.000000,16390.000000,1.000000,12.000000,0.000000,1.700000,-8.510000
22.886255,25.000000,4.000000,16386.000000,35.000000,0.000000,2.000000,1.540000,-7.980000
22.888953,7.000000,11.000000,16378.000000,9.000000,-12.000000,-19.000000,1.380000,-8.210000
22.892110,14.000000,7.000000,16403.000000,-8.000000,-7.000000,1.000000,1.200000,-8.900000
22.895139,-1.000000,-8.000000,16386.000000,17.000000,1.000000,8.000000,1.010000,-9.200000
22.897926,5.000000,-18.000000,16387.000000,20.000000,2.000000,-11.000000,0.820000,-9.590000
22.901583,11.000000,-17.000000,16392.000000,2.000000,-12.000000,-12.000000,0.640000,-9.280000
22.904501,3.000000,12.000000,16404.000000,41.000000,-10.000000,19.000000,0.450000,-9.360000
23.135782,10.000000,-6.000000,16398.000000,5.000000,10.000000,8.000000,0.250000,-10.200000
23.140660,16.000000,11.000000,16405.000000,-14.000000,-15.000000,3.000000,0.050000,-9.590000
23.143163,4.000000,-11.000000,16394.000000,21.000000,-7.000000,15.000000,-0.150000,-10.050000
23.145029,6.000000,-4.000000,16394.000000,13.000000,-6.000000,-3.000000,-0.350000,-9.890000
23.146133,10.000000,-15.000000,16423.000000,17.000000,7.000000,8.000000,-0.540000,-9.820000
23.147490,3.000000,-11.000000,16388.000000,19.000000,2.000000,11.000000,-0.730000,-9.590000
23.150390,14.000000,-9.000000,16398.000000,24.000000,-13.000000,-11.000000,-0.920000,-9.360000
23.154415,9.000000,-6.000000,16394.000000,36.000000,-2.000000,16.000000,-1.110000,-9.280000
23.158265,10.000000,5.000000,16387.000000,8.000000,13.000000,13.000000,-1.290000,-9.050000
23.160323,15.000000,10.000000,16398.000000,-15.000000,-8.000000,-18.000000,-1.460000,-8.820000
23.161403,0.000000,-1.000000,16398.000000,27.000000,6.000000,20.000000,-1.640000,-8.970000
23.378261,14.000000,-2.000000,16411.000000,28.000000,-9.000000,15.000000,-1.820000,-8.970000
23.381353,-2.000000,1.000000,16393.000000,8.000000,13.000000,17.000000,-2.010000,-9.360000
23.382936,0.000000,0.000000,16395.000000,10.000000,9.000000,0.000000,-2.200000,-9.360000
23.384314,4.000000,-1.000000,16388.000000,8.000000,-22.000000,7.000000,-2.390000,-9.820000
23.385394,7.000000,-13.000000,16390.000000,21.000000,2.000000,0.000000,-2.590000,-9.970000
23.386466,8.000000,-8.000000,16397.000000,23.000000,22.000000,6.000000,-2.800000,-10.350000
23.387652,7.000000,-2.000000,16392.000000,0.000000,-8.000000,-3.000000,-3.010000,-10.580000
23.388596,25.000000,1.000000,16396.000000,4.000000,-5.000000,17.000000,-3.230000,-10.890000
23.389543,16.000000,7.000000,16406.000000,22.000000,0.000000,0.000000,-3.440000,-10.510000
23.390434,-3.000000,0.000000,16406.000000,26.000000,2.000000,15.000000,-3.650000,-10.510000
23.391220,-7.000000,-14.000000,16400.000000,-18.000000,-15.000000,0.000000,-3.850000,-10.200000
23.392045,4.000000,1.000000,16400.000000,-13.000000,10.000000,-8.000000,-4.040000,-9.360000
23.392959,11.000000,-2.000000,16396.000000,19.000000,-12.000000,2.000000,-4.230000,-9.590000
23.393810,7.000000,10.000000,16398.000000,18.000000,-11.000000,10.000000,-4.410000,-9.050000
23.394686,-4.000000,13.000000,16395.000000,-11.000000,-4.000000,-5.000000,-4.590000,-8.900000
23.396393,3.000000,9.000000,16409.000000,28.000000,16.000000,14.000000,-4.770000,-8.820000
23.586650,13.000000,8.000000,16406.000000,18.000000,4.000000,2.000000,-4.950000,-9.130000
23.588919,9.000000,7.000000,16401.000000,3.000000,16.000000,3.000000,-5.130000,-9.050000
23.590260,3.000000,-1.000000,16399.000000,15.000000,-5.000000,-6.000000,-5.310000,-8.820000
23.591316,11.000000,-12.000000,16395.000000,-17.000000,21.000000,4.000000,-5.490000,-9.360000
23.592431,-2.000000,0.000000,16402.000000,6.000000,6.000000,-2.000000,-5.690000,-9.740000
23.593469,15.000000,6.000000,16402.000000,-16.000000,0.000000,-13.000000,-5.890000,-9.970000
23.594438,9.000000,11.000000,16381.000000,18.000000,14.000000,1.000000,-6.090000,-10.200000
23.595374,23.000000,-10.000000,16401.000000,-6.000000,-14.000000,-8.000000,-6.290000,-10.050000
23.596335,9.000000,-6.000000,16392.000000,17.000000,-19.000000,10.000000,-6.490000,-10.050000
23.597896,6.000000,-2.000000,16397.000000,15.000000,-13.000000,-3.000000,-6.690000,-9.970000
23.601281,22.000000,-11.000000,16409.000000,8.000000,-6.000000,-3.000000,-6.890000,-9.660000
23.603907,16.000000,9.000000,16399.000000,16.000000,5.000000,-18.000000,-7.090000,-10.050000
23.606637,5.000000,1.000000,16402.000000,-3.000000,-16.000000,2.000000,-7.280000,-9.740000
23.862748,12.000000,0.000000,16404.000000,-3.000000,-12.000000,-5.000000,-7.460000,-9.050000
23.870047,3.000000,-2.000000,16403.000000,-5.000000,-1.000000,-5.000000,-7.650000,-9.050000
23.874384,-3.000000,-16.000000,16399.000000,7.000000,-3.000000,7.000000,-7.820000,-8.820000
23.876931,-3.000000,-6.000000,16393.000000,21.000000,4.000000,1.000000,-8.000000,-8.900000
23.881971,5.000000,-14.000000,16386.000000,3.000000,-2.000000,19.000000,-8.180000,-8.820000
23.886315,-1.000000,-2.000000,16396.000000,4.000000,-1.000000,-5.000000,-8.360000,-9.130000
24.090138,-7.000000,13.000000,16383.000000,-2.000000,-26.000000,-4.000000,-8.550000,-9.430000
24.092281,4.000000,-2.000000,16398.000000,27.000000,-11.000000,-5.000000,-8.750000,-9.970000
24.093182,8.000000,-3.000000,16404.000000,5.000000,0.000000,8.000000,-8.950000,-10.350000
24.094024,12.000000,-16.000000,16386.000000,8.000000,-3.000000,-20.000000,-9.170000,-10.660000
24.095778,5.000000,-15.000000,16399.000000,-6.000000,17.000000,-7.000000,-9.390000,-10.970000
24.097080,8.000000,-9.000000,16392.000000,1.000000,11.000000,-10.000000,-9.600000,-10.810000
24.098280,-2.000000,-12.000000,16392.000000,1.000000,12.000000,-8.000000,-9.810000,-10.580000
24.099306,-2.000000,0.000000,16394.000000,3.000000,-14.000000,-1.000000,-10.020000,-10.120000
24.101515,-2.000000,-8.000000,16388.000000,5.000000,6.000000,-21.000000,-10.220000,-9.970000
24.102606,14.000000,-7.000000,16392.000000,-27.000000,4.000000,-12.000000,-10.400000,-9.130000
24.103540,-6.000000,-15.000000,16383.000000,15.000000,-19.000000,-11.000000,-10.590000,-9.430000
24.104450,3.000000,-9.000000,16400.000000,-19.000000,-3.000000,-10.000000,-10.770000,-9.200000
24.105799,-6.000000,-17.000000,16391.000000,10.000000,-29.000000,4.000000,-10.950000,-8.740000
24.107006,7.000000,-1.000000,16395.000000,31.000000,-11.000000,15.000000,-11.120000,-8.820000
24.108011,8.000000,2.000000,16387.000000,19.000000,21.000000,-5.000000,-11.300000,-8.900000
24.109514,6.000000,5.000000,16405.000000,7.000000,6.000000,-25.000000,-11.480000,-8.970000
24.112250,3.000000,1.000000,16388.000000,11.000000,-5.000000,-28.000000,-11.660000,-9.130000
24.113300,5.000000,7.000000,16390.000000,7.000000,-16.000000,8.000000,-11.850000,-9.360000
24.114420,8.000000,-2.000000,16412.000000,1.000000,10.000000,-26.000000,-12.040000,-9.590000
24.462733,2.000000,-6.000000,16393.000000,0.000000,-10.000000,-4.000000,-12.240000,-9.820000
24.804116,-2.000000,-7.000000,16395.000000,7.000000,-3.000000,-14.000000,-12.440000,-10.050000
24.807876,9.000000,0.000000,16397.000000,4.000000,0.000000,3.000000,-12.640000,-10.200000
24.809251,12.000000,2.000000,16387.000000,-1.000000,-19.000000,16.000000,-12.850000,-10.120000
24.810802,9.000000,5.000000,16407.000000,10.000000,-11.000000,15.000000,-13.050000,-10.200000
24.812614,11.000000,-16.000000,16398.000000,16.000000,4.000000,-6.000000,-13.240000,-9.590000
24.814766,9.000000,-1.000000,16394.000000,12.000000,-20.000000,9.000000,-13.440000,-9.970000
24.816742,3.000000,4.000000,16392.000000,14.000000,-25.000000,5.000000,-13.620000,-9.130000
24.818040,-10.000000,4.000000,16400.000000,11.000000,-16.000000,9.000000,-13.810000,-9.200000
24.819530,-2.000000,-1.000000,16397.000000,-17.000000,6.000000,-6.000000,-13.990000,-9.050000
24.821169,-5.000000,-9.000000,16395.000000,-14.000000,-4.000000,9.000000,-14.160000,-8.820000
24.822586,17.000000,16.000000,16395.000000,6.000000,24.000000,-4.000000,-14.340000,-8.820000
24.825416,3.000000,-1.000000,16398.000000,8.000000,-11.000000,-7.000000,-14.530000,-9.280000
24.828521,18.000000,-17.000000,16394.000000,-3.000000,5.000000,-14.000000,-14.710000,-9.280000
24.832020,14.000000,-9.000000,16401.000000,-5.000000,5.000000,-19.000000,-14.910000,-9.740000
25.256511,-10.000000,-4.000000,16406.000000,-7.000000,-15.000000,-1.000000,-15.110000,-9.970000
25.464108,7.000000,-6.000000,16382.000000,17.000000,-13.000000,-9.000000,-15.310000,-10.280000
25.468675,6.000000,-5.000000,16403.000000,15.000000,3.000000,-8.000000,-15.520000,-10.430000
25.469895,15.000000,-3.000000,16385.000000,-3.000000,-19.000000,10.000000,-15.740000,-10.740000
25.470944,0.000000,0.000000,16399.000000,21.000000,-2.000000,18.000000,-15.950000,-10.660000
25.471788,17.000000,0.000000,16393.000000,24.000000,13.000000,7.000000,-16.160000,-10.510000
25.472616,14.000000,-1.000000,16400.000000,24.000000,0.000000,0.000000,-16.360000,-10.120000
25.473381,31.000000,3.000000,16399.000000,-4.000000,3.000000,-12.000000,-16.550000,-9.430000
25.474055,11.000000,-1.000000,16391.000000,0.000000,3.000000,16.000000,-16.740000,-9.590000
25.474796,6.000000,2.000000,16393.000000,25.000000,28.000000,-12.000000,-16.920000,-9.130000
25.475756,11.000000,-5.000000,16393.000000,4.000000,-5.000000,18.000000,-17.100000,-8.740000
25.476542,1.000000,-2.000000,16398.000000,-3.000000,-28.000000,-7.000000,-17.270000,-8.670000
25.477256,18.000000,6.000000,16399.000000,7.000000,17.000000,-14.000000,-17.450000,-8.670000
25.477917,7.000000,-2.000000,16393.000000,16.000000,6.000000,18.000000,-17.630000,-9.130000
25.478658,13.000000,-17.000000,16391.000000,18.000000,-12.000000,11.000000,-17.810000,-9.050000
25.479374,6.000000,-4.000000,16389.000000,26.000000,-9.000000,6.000000,-17.990000,-9.130000
25.480022,11.000000,-16.000000,16383.000000,-22.000000,-19.000000,-3.000000,-18.180000,-9.510000
25.481188,13.000000,-24.000000,16394.000000,-2.000000,-8.000000,-3.000000,-18.370000,-9.360000
25.483380,12.000000,-10.000000,16391.000000,-7.000000,1.000000,4.000000,-18.570000,-9.970000
25.484407,8.000000,5.000000,16384.000000,7.000000,18.000000,7.000000,-18.770000,-9.820000
25.485238,5.000000,6.000000,16389.000000,24.000000,-7.000000,1.000000,-18.970000,-10.120000
25.485976,4.000000,1.000000,16390.000000,17.000000,20.000000,17.000000,-19.180000,-10.580000
25.486773,10.000000,11.000000,16401.000000,12.000000,0.000000,-13.000000,-19.380000,-10.200000
25.487562,17.000000,-4.000000,16394.000000,-18.000000,-4.000000,3.000000,-19.570000,-9.430000
25.488315,3.000000,11.000000,16394.000000,-8.000000,-13.000000,6.000000,-19.770000,-9.740000
25.488978,-6.000000,9.000000,16384.000000,14.000000,-15.000000,-7.000000,-19.950000,-9.050000
25.489746,-1.000000,8.000000,16392.000000,6.000000,-11.000000,22.000000,-20.130000,-9.130000
25.490458,11.000000,2.000000,16392.000000,-1.000000,7.000000,-21.000000,-20.310000,-8.970000
25.491163,11.000000,-2.000000,16383.000000,-17.000000,0.000000,4.000000,-20.490000,-8.970000
25.491839,2.000000,-1.000000,16402.000000,-2.000000,-2.000000,2.000000,-20.670000,-8.820000
25.492657,5.000000,4.000000,16399.000000,-6.000000,-11.000000,-12.000000,-20.850000,-9.200000
25.493483,-1.000000,-11.000000,16407.000000,12.000000,-6.000000,18.000000,-21.040000,-9.360000
25.494217,18.000000,-3.000000,16404.000000,11.000000,0.000000,-3.000000,-21.230000,-9.660000
25.495323,9.000000,-1.000000,16389.000000,12.000000,-17.000000,0.000000,-21.430000,-9.890000
25.714295,9.000000,-4.000000,16397.000000,-19.000000,21.000000,1.000000,-21.630000,-10.280000
25.716813,14.000000,3.000000,16416.000000,40.000000,6.000000,19.000000,-21.840000,-10.280000
25.717723,7.000000,0.000000,16402.000000,22.000000,-4.000000,7.000000,-22.050000,-10.580000
25.718547,16.000000,-1.000000,16401.000000,40.000000,-20.000000,3.000000,-22.260000,-10.580000
25.719335,14.000000,6.000000,16390.000000,-2.000000,-12.000000,8.000000,-22.470000,-10.350000
25.720089,-14.000000,-14.000000,16396.000000,-3.000000,-14.000000,5.000000,-22.670000,-10.200000
25.720792,8.000000,-12.000000,16400.000000,-6.000000,-9.000000,-13.000000,-22.860000,-9.280000
25.721709,3.000000,-2.000000,16405.000000,21.000000,21.000000,-11.000000,-23.050000,-9.510000
25.722476,28.000000,3.000000,16382.000000,-6.000000,4.000000,0.000000,-23.230000,-9.050000
25.723217,2.000000,0.000000,16410.000000,6.000000,-9.000000,-7.000000,-23.410000,-8.900000
25.723960,-2.000000,-13.000000,16394.000000,-15.000000,-16.000000,8.000000,-23.580000,-8.740000
25.724666,4.000000,-8.000000,16403.000000,1.000000,-12.000000,7.000000,-23.760000,-8.820000
25.725631,15.000000,-8.000000,16399.000000,-14.000000,-19.000000,-2.000000,-23.940000,-9.050000
25.727547,9.000000,-10.000000,16407.000000,24.000000,-9.000000,-23.000000,-24.120000,-8.820000
25.728609,11.000000,2.000000,16393.000000,3.000000,-16.000000,-8.000000,-24.300000,-8.970000
25.729420,6.000000,2.000000,16402.000000,-14.000000,-19.000000,-1.000000,-24.490000,-9.430000
25.730193,-6.000000,1.000000,16391.000000,16.000000,-4.000000,5.000000,-24.680000,-9.510000
25.731117,3.000000,9.000000,16389.000000,17.000000,-17.000000,0.000000,-24.880000,-10.120000
25.731897,2.000000,-4.000000,16406.000000,-4.000000,4.000000,2.000000,-25.080000,-9.890000
25.732787,4.000000,11.000000,16401.000000,-12.000000,9.000000,-8.000000,-25.280000,-10.120000
25.733512,6.000000,-8.000000,16399.000000,-18.000000,2.000000,-13.000000,-25.490000,-10.510000
25.734317,6.000000,-3.000000,16397.000000,-11.000000,-22.000000,-2.000000,-25.690000,-10.050000
25.735285,4.000000,-11.000000,16385.000000,-3.000000,-6.000000,3.000000,-25.880000,-9.740000
25.736223,0.000000,-2.000000,16396.000000,-3.000000,-3.000000,8.000000,-26.070000,-9.430000
25.737196,16.000000,6.000000,16410.000000,-11.000000,-23.000000,-9.000000,-26.260000,-9.130000
25.738054,4.000000,-8.000000,16390.000000,-2.000000,17.000000,-4.000000,-26.440000,-9.130000
25.738852,3.000000,-1.000000,16415.000000,21.000000,-13.000000,-2.000000,-26.620000,-9.050000
25.739584,7.000000,-18.000000,16395.000000,6.000000,13.000000,-8.000000,-26.800000,-8.900000
25.740420,16.000000,6.000000,16420.000000,7.000000,-25.000000,-4.000000,-26.970000,-8.740000
25.741288,7.000000,-14.000000,16405.000000,13.000000,-12.000000,-14.000000,-27.150000,-9.050000
25.742769,-3.000000,4.000000,16396.000000,4.000000,8.000000,9.000000,-27.340000,-9.200000
25.744018,8.000000,-7.000000,16396.000000,6.000000,-5.000000,-11.000000,-27.530000,-9.740000
25.744974,14.000000,4.000000,16379.000000,-2.000000,-14.000000,3.000000,-27.730000,-9.740000
26.004696,11.000000,6.000000,16398.000000,3.000000,-2.000000,2.000000,-27.930000,-10.280000
26.007748,13.000000,-1.000000,16399.000000,13.000000,-17.000000,2.000000,-28.140000,-10.580000
26.009281,3.000000,1.000000,16390.000000,0.000000,37.000000,-8.000000,-28.360000,-10.660000
26.010523,14.000000,-9.000000,16394.000000,1.000000,19.000000,0.000000,-28.570000,-10.660000
26.011679,4.000000,-14.000000,16397.000000,-12.000000,-10.000000,13.000000,-28.780000,-10.350000
26.012844,6.000000,-6.000000,16420.000000,3.000000,-4.000000,7.000000,-28.980000,-10.050000
26.013878,4.000000,8.000000,16398.000000,-8.000000,4.000000,-12.000000,-29.160000,-9.280000
26.014898,9.000000,15.000000,16392.000000,-15.000000,-16.000000,-15.000000,-29.360000,-9.660000
26.016044,-1.000000,-1.000000,16401.000000,-14.000000,-5.000000,-1.000000,-29.540000,-9.050000
26.017402,4.000000,-3.000000,16389.000000,-5.000000,10.000000,-1.000000,-29.710000,-8.740000
26.018630,3.000000,-1.000000,16403.000000,5.000000,7.000000,-15.000000,-29.890000,-8.820000
26.020017,15.000000,-6.000000,16393.000000,-15.000000,20.000000,-26.000000,-30.060000,-8.740000
26.020884,16.000000,9.000000,16401.000000,19.000000,8.000000,-17.000000,-30.240000,-8.900000
26.022308,-5.000000,-1.000000,16396.000000,30.000000,-27.000000,4.000000,-30.420000,-8.740000
26.175898,6.000000,9.000000,16395.000000,27.000000,18.000000,8.000000,-30.600000,-8.970000
26.180578,12.000000,15.000000,16402.000000,-15.000000,17.000000,-9.000000,-30.790000,-9.430000
26.183276,17.000000,-1.000000,16409.000000,-4.000000,0.000000,6.000000,-30.970000,-9.360000
26.185455,10.000000,3.000000,16398.000000,-17.000000,8.000000,20.000000,-31.180000,-10.120000
26.187309,3.000000,-9.000000,16395.000000,22.000000,14.000000,12.000000,-31.370000,-9.660000
26.189086,11.000000,-6.000000,16389.000000,3.000000,12.000000,3.000000,-31.570000,-10.120000
26.190224,0.000000,0.000000,16399.000000,19.000000,-11.000000,12.000000,-31.770000,-10.050000
26.191227,9.000000,-14.000000,16399.000000,23.000000,-1.000000,5.000000,-31.970000,-9.740000
26.210566,-3.000000,-5.000000,16387.000000,-20.000000,0.000000,-7.000000,-32.160000,-9.740000
26.225585,8.000000,-7.000000,16403.000000,-1.000000,-1.000000,-20.000000,-32.350000,-9.510000
26.241645,9.000000,-1.000000,16400.000000,28.000000,-21.000000,-5.000000,-32.540000,-9.360000
26.273513,2.000000,2.000000,16398.000000,15.000000,-3.000000,12.000000,-32.720000,-9.130000
26.289178,4.000000,-14.000000,16403.000000,11.000000,5.000000,7.000000,-32.900000,-8.900000
26.304798,8.000000,-7.000000,16404.000000,26.000000,-11.000000,7.000000,-33.080000,-8.970000
26.320236,6.000000,4.000000,16408.000000,10.000000,10.000000,-1.000000,-33.260000,-8.970000
26.350314,12.000000,-3.000000,16393.000000,32.000000,-16.000000,18.000000,-33.440000,-9.200000
26.366609,3.000000,3.000000,16384.000000,19.000000,3.000000,3.000000,-33.620000,-9.130000
26.382948,5.000000,11.000000,16397.000000,-7.000000,8.000000,1.000000,-33.820000,-9.740000
26.414360,-5.000000,6.000000,16417.000000,4.000000,-11.000000,12.000000,-34.020000,-9.820000
26.759368,15.000000,3.000000,16390.000000,9.000000,10.000000,-15.000000,-34.220000,-10.350000
26.911713,5.000000,-6.000000,16396.000000,12.000000,-14.000000,17.000000,-34.430000,-10.580000
26.916527,1.000000,-6.000000,16385.000000,17.000000,-5.000000,24.000000,-34.650000,-10.740000
26.919488,11.000000,6.000000,16408.000000,26.000000,-13.000000,15.000000,-34.860000,-10.510000
26.921591,6.000000,-10.000000,16403.000000,21.000000,-16.000000,-8.000000,-35.070000,-10.430000
26.922651,17.000000,2.000000,16393.000000,-16.000000,19.000000,-7.000000,-35.270000,-10.120000
26.924224,8.000000,1.000000,16406.000000,10.000000,-5.000000,9.000000,-35.460000,-9.360000
26.927180,6.000000,10.000000,16412.000000,17.000000,-17.000000,13.000000,-35.650000,-9.430000
26.930074,10.000000,-9.000000,16394.000000,4.000000,8.000000,-1.000000,-35.820000,-8.820000
26.934208,11.000000,5.000000,16395.000000,5.000000,-11.000000,2.000000,-36.000000,-8.820000
26.937427,9.000000,-6.000000,16398.000000,4.000000,-13.000000,-16.000000,-36.180000,-8.820000
26.940140,7.000000,-5.000000,16398.000000,7.000000,5.000000,-3.000000,-36.350000,-8.820000
26.942987,7.000000,-1.000000,16410.000000,7.000000,-15.000000,-1.000000,-36.530000,-8.740000
26.945505,19.000000,-3.000000,16395.000000,-8.000000,2.000000,-13.000000,-36.710000,-8.900000
26.946817,10.000000,-5.000000,16401.000000,20.000000,-8.000000,-19.000000,-36.890000,-9.050000
26.949661,-1.000000,-2.000000,16405.000000,-1.000000,-5.000000,-16.000000,-37.070000,-9.280000
26.952001,16.000000,-3.000000,16415.000000,9.000000,-15.000000,-9.000000,-37.260000,-9.430000
26.953022,12.000000,7.000000,16403.000000,-7.000000,8.000000,-15.000000,-37.460000,-9.970000
26.953805,15.000000,-11.000000,16410.000000,-4.000000,5.000000,-11.000000,-37.650000,-9.740000
26.954502,1.000000,-6.000000,16404.000000,-5.000000,10.000000,-13.000000,-37.860000,-10.200000
26.956407,6.000000,-8.000000,16410.000000,22.000000,-10.000000,6.000000,-38.060000,-10.050000
26.957820,-1.000000,-4.000000,16379.000000,-3.000000,-3.000000,-10.000000,-38.260000,-9.820000
26.958723,8.000000,-6.000000,16400.000000,12.000000,3.000000,2.000000,-38.450000,-9.740000
26.959518,9.000000,-4.000000,16393.000000,7.000000,-32.000000,-2.000000,-38.640000,-9.590000
26.960207,6.000000,-2.000000,16409.000000,7.000000,-16.000000,-4.000000,-38.830000,-9.200000
27.146734,2.000000,-9.000000,16399.000000,5.000000,10.000000,-11.000000,-39.010000,-9.200000
27.149972,9.000000,-3.000000,16402.000000,-1.000000,-9.000000,-8.000000,-39.190000,-8.970000
27.152044,-8.000000,5.000000,16394.000000,18.000000,6.000000,-20.000000,-39.370000,-8.820000
27.155106,-3.000000,-15.000000,16405.000000,-8.000000,4.000000,-7.000000,-39.540000,-8.820000
27.157029,11.000000,4.000000,16395.000000,15.000000,-3.000000,-15.000000,-39.720000,-9.050000
27.158269,8.000000,-2.000000,16398.000000,12.000000,11.000000,-16.000000,-39.910000,-9.430000
27.160814,9.000000,0.000000,16406.000000,2.000000,-12.000000,-5.000000,-40.110000,-9.740000
27.163011,9.000000,12.000000,16401.000000,10.000000,19.000000,9.000000,-40.300000,-9.740000
27.341402,19.000000,-2.000000,16414.000000,-31.000000,-10.000000,1.000000,-40.510000,-10.280000
27.347258,3.000000,-9.000000,16406.000000,31.000000,7.000000,21.000000,-40.720000,-10.580000
27.350068,7.000000,7.000000,16389.000000,-2.000000,7.000000,9.000000,-40.940000,-10.810000
27.353022,13.000000,-25.000000,16395.000000,11.000000,14.000000,18.000000,-41.150000,-10.660000
27.356999,2.000000,4.000000,16394.000000,34.000000,-27.000000,10.000000,-41.350000,-10.280000
27.360987,14.000000,-2.000000,16405.000000,-1.000000,5.000000,1.000000,-41.560000,-10.120000
27.364545,7.000000,5.000000,16396.000000,-24.000000,24.000000,-14.000000,-41.740000,-9.050000
27.594688,11.000000,-2.000000,16394.000000,-9.000000,-21.000000,-3.000000,-41.930000,-9.360000
27.598305,9.000000,-4.000000,16398.000000,27.000000,-14.000000,-12.000000,-42.100000,-8.900000
27.599768,3.000000,-4.000000,16403.000000,-8.000000,5.000000,-24.000000,-42.280000,-8.900000
27.600895,10.000000,-5.000000,16409.000000,-11.000000,-22.000000,-2.000000,-42.450000,-8.590000
27.601927,16.000000,-3.000000,16408.000000,8.000000,-11.000000,-4.000000,-42.630000,-8.970000
27.602970,14.000000,-11.000000,16413.000000,4.000000,3.000000,-1.000000,-42.810000,-8.820000
27.603905,13.000000,-3.000000,16395.000000,-23.000000,-10.000000,-11.000000,-42.990000,-8.970000
27.605303,1.000000,-3.000000,16407.000000,-17.000000,-6.000000,12.000000,-43.170000,-9.050000
27.606517,18.000000,-4.000000,16416.000000,-7.000000,4.000000,-20.000000,-43.360000,-9.510000
27.607533,12.000000,1.000000,16409.000000,13.000000,2.000000,8.000000,-43.550000,-9.360000
27.608882,8.000000,-4.000000,16408.000000,-4.000000,2.000000,6.000000,-43.750000,-10.050000
27.609893,13.000000,-5.000000,16397.000000,-6.000000,-12.000000,-21.000000,-43.940000,-9.660000
27.610822,2.000000,-16.000000,16387.000000,2.000000,-7.000000,-19.000000,-44.140000,-9.970000
27.611652,23.000000,-1.000000,16421.000000,-10.000000,8.000000,3.000000,-44.340000,-10.120000
27.612498,13.000000,6.000000,16396.000000,22.000000,-14.000000,29.000000,-44.540000,-10.050000
27.613427,12.000000,2.000000,16392.000000,16.000000,-24.000000,-16.000000,-44.740000,-9.660000
27.615059,2.000000,-9.000000,16399.000000,7.000000,5.000000,5.000000,-44.930000,-9.430000
27.618172,15.000000,0.000000,16409.000000,27.000000,-20.000000,4.000000,-45.110000,-9.360000
27.619964,14.000000,-4.000000,16398.000000,-26.000000,-7.000000,7.000000,-45.300000,-9.130000
27.621009,5.000000,-16.000000,16400.000000,17.000000,-12.000000,8.000000,-45.470000,-8.740000
27.971433,6.000000,-8.000000,16395.000000,24.000000,-2.000000,-18.000000,-45.650000,-8.820000
28.146603,2.000000,-3.000000,16398.000000,-2.000000,0.000000,-7.000000,-45.820000,-8.900000
28.151735,18.000000,5.000000,16395.000000,15.000000,6.000000,9.000000,-46.010000,-9.200000
28.157476,4.000000,7.000000,16393.000000,14.000000,-9.000000,20.000000,-46.200000,-9.430000
28.159955,18.000000,1.000000,16405.000000,17.000000,-7.000000,13.000000,-46.390000,-9.740000
28.161546,10.000000,0.000000,16397.000000,13.000000,-4.000000,-13.000000,-46.590000,-9.890000
28.164369,6.000000,8.000000,16386.000000,11.000000,16.000000,-1.000000,-46.800000,-10.350000
28.167073,8.000000,6.000000,16409.000000,10.000000,18.000000,27.000000,-47.010000,-10.580000
28.170018,9.000000,-4.000000,16410.000000,-7.000000,8.000000,-25.000000,-47.220000,-10.660000
28.173046,5.000000,2.000000,16406.000000,-7.000000,25.000000,0.000000,-47.430000,-10.280000
28.176023,-3.000000,-3.000000,16406.000000,18.000000,-15.000000,0.000000,-47.630000,-10.200000
28.178775,4.000000,9.000000,16396.000000,-20.000000,-10.000000,-16.000000,-47.830000,-9.970000
28.181754,5.000000,2.000000,16405.000000,19.000000,-11.000000,11.000000,-48.020000,-9.200000
28.185021,19.000000,-1.000000,16403.000000,31.000000,-16.000000,11.000000,-48.200000,-9.430000
28.187992,6.000000,-4.000000,16393.000000,8.000000,-18.000000,-26.000000,-48.380000,-8.900000
28.401631,6.000000,-6.000000,16395.000000,5.000000,5.000000,4.000000,-48.560000,-8.970000
28.404127,7.000000,-4.000000,16390.000000,18.000000,6.000000,-6.000000,-48.730000,-8.670000
28.405042,9.000000,8.000000,16409.000000,0.000000,-5.000000,-18.000000,-48.910000,-8.970000
28.405968,3.000000,4.000000,16394.000000,1.000000,21.000000,24.000000,-49.090000,-8.820000
28.406888,2.000000,-6.000000,16399.000000,2.000000,12.000000,10.000000,-49.270000,-8.820000
28.407681,8.000000,-8.000000,16402.000000,-1.000000,-21.000000,15.000000,-49.450000,-9.200000
28.408402,10.000000,1.000000,16409.000000,-1.000000,-21.000000,-14.000000,-49.640000,-9.430000
28.409098,16.000000,6.000000,16398.000000,-11.000000,0.000000,3.000000,-49.830000,-9.590000
28.409720,13.000000,-12.000000,16401.000000,4.000000,10.000000,4.000000,-50.030000,-10.120000
28.410421,6.000000,1.000000,16396.000000,12.000000,6.000000,14.000000,-50.230000,-9.660000
28.411122,-4.000000,8.000000,16408.000000,25.000000,1.000000,29.000000,-50.420000,-9.820000
28.411738,8.000000,-9.000000,16398.000000,-1.000000,3.000000,3.000000,-50.620000,-9.740000
28.412434,2.000000,-1.000000,16391.000000,6.000000,-16.000000,8.000000,-50.810000,-9.820000
28.413147,10.000000,-12.000000,16388.000000,5.000000,-3.000000,14.000000,-51.010000,-9.890000
28.592593,3.000000,-13.000000,16385.000000,32.000000,-5.000000,-7.000000,-51.200000,-9.510000
28.594801,12.000000,4.000000,16392.000000,-23.000000,-4.000000,5.000000,-51.390000,-9.130000
28.596468,-2.000000,-1.000000,16385.000000,11.000000,1.000000,9.000000,-51.570000,-9.130000
28.598034,8.000000,6.000000,16387.000000,0.000000,-22.000000,-13.000000,-51.740000,-8.820000
28.599498,5.000000,-13.000000,16406.000000,28.000000,-4.000000,-1.000000,-51.930000,-9.130000
28.600335,12.000000,-10.000000,16400.000000,1.000000,7.000000,-12.000000,-52.100000,-8.740000
28.601008,10.000000,-15.000000,16392.000000,2.000000,10.000000,0.000000,-52.280000,-9.050000
28.601728,19.000000,3.000000,16396.000000,26.000000,5.000000,13.000000,-52.470000,-9.510000
28.602386,-4.000000,8.000000,16400.000000,5.000000,-11.000000,-7.000000,-52.670000,-9.740000
28.602979,-11.000000,12.000000,16396.000000,13.000000,1.000000,1.000000,-52.870000,-10.050000
28.603692,4.000000,-6.000000,16394.000000,-9.000000,-13.000000,-12.000000,-53.070000,-10.200000
28.604804,15.000000,0.000000,16395.000000,6.000000,5.000000,11.000000,-53.280000,-10.430000
28.606662,6.000000,-4.000000,16397.000000,5.000000,4.000000,-5.000000,-53.490000,-10.510000
28.609003,16.000000,-2.000000,16404.000000,-15.000000,12.000000,-20.000000,-53.700000,-10.280000
28.611026,16.000000,11.000000,16401.000000,4.000000,-23.000000,-11.000000,-53.900000,-10.280000
28.611917,6.000000,-4.000000,16391.000000,0.000000,3.000000,-1.000000,-54.100000,-9.890000
28.612734,-2.000000,-11.000000,16397.000000,15.000000,-9.000000,-15.000000,-54.290000,-9.360000
28.613445,3.000000,-9.000000,16388.000000,9.000000,-11.000000,-12.000000,-54.480000,-9.510000
28.614369,11.000000,-1.000000,16381.000000,10.000000,-7.000000,-7.000000,-54.660000,-9.130000
28.615732,10.000000,-18.000000,16397.000000,-2.000000,12.000000,-10.000000,-54.830000,-8.590000
28.617147,14.000000,4.000000,16398.000000,2.000000,-1.000000,-13.000000,-55.010000,-8.740000
28.620380,18.000000,19.000000,16393.000000,11.000000,15.000000,-10.000000,-55.180000,-8.820000
28.806559,6.000000,3.000000,16376.000000,-9.000000,-10.000000,-3.000000,-55.360000,-9.050000
28.811911,12.000000,1.000000,16388.000000,18.000000,3.000000,1.000000,-55.540000,-8.970000
28.814318,-1.000000,-16.000000,16384.000000,-3.000000,-7.000000,4.000000,-55.730000,-9.130000
28.816832,11.000000,-15.000000,16397.000000,0.000000,-25.000000,-5.000000,-55.920000,-9.430000
28.819235,-3.000000,-1.000000,16395.000000,27.000000,-2.000000,-12.000000,-56.100000,-9.360000
28.821630,14.000000,-2.000000,16392.000000,28.000000,-14.000000,6.000000,-56.300000,-9.970000
28.824568,13.000000,-8.000000,16379.000000,-4.000000,25.000000,0.000000,-56.490000,-9.660000
28.826186,-5.000000,8.000000,16392.000000,13.000000,-4.000000,14.000000,-56.690000,-9.820000
28.827606,10.000000,-4.000000,16398.000000,24.000000,3.000000,-9.000000,-56.890000,-9.820000
28.828618,11.000000,0.000000,16393.000000,20.000000,12.000000,9.000000,-57.080000,-9.820000
29.168346,-11.000000,3.000000,16399.000000,12.000000,3.000000,14.000000,-57.270000,-9.510000
29.387671,2.000000,-3.000000,16380.000000,15.000000,-26.000000,14.000000,-57.470000,-9.660000
29.394491,11.000000,12.000000,16391.000000,5.000000,0.000000,-11.000000,-57.650000,-9.200000
29.396601,0.000000,3.000000,16377.000000,-12.000000,6.000000,-9.000000,-57.830000,-9.050000
29.399270,23.000000,-1.000000,16377.000000,17.000000,-21.000000,-31.000000,-58.010000,-9.050000
29.400987,5.000000,-10.000000,16383.000000,3.000000,15.000000,-16.000000,-58.190000,-8.900000
29.403758,12.000000,-7.000000,16369.000000,3.000000,-6.000000,-27.000000,-58.370000,-8.820000
29.406381,11.000000,-12.000000,16395.000000,28.000000,13.000000,-7.000000,-58.550000,-9.130000
29.408134,12.000000,-3.000000,16380.000000,18.000000,-4.000000,19.000000,-58.740000,-9.360000
29.409984,21.000000,3.000000,16383.000000,23.000000,11.000000,29.000000,-58.930000,-9.510000
29.412734,4.000000,-13.000000,16364.000000,12.000000,-4.000000,15.000000,-59.130000,-10.120000
29.415649,6.000000,-1.000000,16397.000000,23.000000,9.000000,0.000000,-59.330000,-10.120000
29.416948,11.000000,-16.000000,16391.000000,-2.000000,-17.000000,17.000000,-59.540000,-10.280000
29.418142,14.000000,-14.000000,16398.000000,6.000000,-16.000000,19.000000,-59.750000,-10.430000
29.419267,15.000000,1.000000,16400.000000,35.000000,-4.000000,9.000000,-59.960000,-10.430000
29.420241,11.000000,1.000000,16386.000000,-10.000000,1.000000,-4.000000,-60.160000,-10.120000
29.422237,10.000000,2.000000,16405.000000,20.000000,-10.000000,-17.000000,-60.360000,-10.050000
29.424194,7.000000,6.000000,16390.000000,14.000000,-12.000000,-4.000000,-60.550000,-9.430000
29.427282,20.000000,5.000000,16396.000000,16.000000,20.000000,14.000000,-60.740000,-9.510000
29.429819,8.000000,-3.000000,16385.000000,-7.000000,-13.000000,18.000000,-60.920000,-9.200000
29.432884,2.000000,-16.000000,16378.000000,19.000000,20.000000,3.000000,-61.100000,-8.820000
29.434166,15.000000,0.000000,16374.000000,-16.000000,8.000000,-10.000000,-61.270000,-8.820000
29.435251,-6.000000,5.000000,16382.000000,11.000000,-3.000000,-3.000000,-61.450000,-8.900000
29.615320,6.000000,0.000000,16394.000000,-4.000000,-2.000000,7.000000,-61.630000,-8.820000
29.621120,7.000000,6.000000,16392.000000,8.000000,3.000000,-7.000000,-61.810000,-8.970000
29.623277,8.000000,2.000000,16381.000000,17.000000,-4.000000,-14.000000,-61.990000,-8.900000
29.624198,15.000000,-10.000000,16382.000000,1.000000,24.000000,2.000000,-62.170000,-9.200000
29.625034,10.000000,10.000000,16386.000000,8.000000,3.000000,10.000000,-62.360000,-9.280000
29.627455,7.000000,-2.000000,16381.000000,7.000000,-4.000000,6.000000,-62.550000,-9.740000
29.629109,-6.000000,1.000000,16385.000000,-6.000000,-26.000000,-9.000000,-62.740000,-9.660000
29.630021,7.000000,-5.000000,16396.000000,32.000000,0.000000,19.000000,-62.940000,-9.820000
29.631475,5.000000,1.000000,16393.000000,9.000000,-3.000000,16.000000,-63.140000,-9.820000
29.632275,-11.000000,-8.000000,16389.000000,-2.000000,1.000000,-10.000000,-63.340000,-10.050000
29.634279,0.000000,-6.000000,16374.000000,14.000000,-18.000000,-12.000000,-63.530000,-9.430000
29.635120,2.000000,11.000000,16392.000000,-21.000000,6.000000,-13.000000,-63.720000,-9.660000
29.635828,9.000000,0.000000,16387.000000,12.000000,-27.000000,21.000000,-63.900000,-9.050000
29.636462,-3.000000,9.000000,16389.000000,9.000000,2.000000,-6.000000,-64.080000,-9.130000
29.637179,-1.000000,1.000000,16392.000000,6.000000,4.000000,22.000000,-64.260000,-9.050000
29.637809,-7.000000,-8.000000,16387.000000,-2.000000,-26.000000,-14.000000,-64.440000,-8.900000
29.638488,12.000000,-12.000000,16388.000000,5.000000,-25.000000,-12.000000,-64.620000,-8.900000
29.826866,6.000000,-3.000000,16395.000000,-3.000000,26.000000,8.000000,-64.800000,-9.200000
29.828940,14.000000,4.000000,16378.000000,-7.000000,-7.000000,9.000000,-64.990000,-9.200000
29.829771,-1.000000,6.000000,16396.000000,22.000000,3.000000,12.000000,-65.180000,-9.510000
29.830630,5.000000,11.000000,16402.000000,19.000000,0.000000,22.000000,-65.380000,-9.890000
29.831389,9.000000,-12.000000,16399.000000,-9.000000,31.000000,-1.000000,-65.580000,-9.970000
29.832082,9.000000,-9.000000,16394.000000,-3.000000,-21.000000,-12.000000,-65.780000,-10.120000
29.833286,-3.000000,-16.000000,16392.000000,5.000000,-9.000000,0.000000,-65.990000,-10.350000
29.834212,2.000000,-14.000000,16406.000000,14.000000,15.000000,8.000000,-66.200000,-10.580000
29.835220,14.000000,-9.000000,16393.000000,8.000000,-18.000000,5.000000,-66.410000,-10.430000
29.836776,-3.000000,3.000000,16396.000000,27.000000,-14.000000,-9.000000,-66.610000,-9.970000
29.849172,8.000000,-10.000000,16396.000000,-8.000000,0.000000,8.000000,-66.800000,-9.510000
30.069032,-2.000000,0.000000,16395.000000,-11.000000,16.000000,6.000000,-66.980000,-9.360000
30.075005,7.000000,-4.000000,16383.000000,26.000000,11.000000,28.000000,-67.160000,-8.970000
30.077784,13.000000,-8.000000,16390.000000,1.000000,-17.000000,6.000000,-67.340000,-8.900000
30.080370,12.000000,-9.000000,16390.000000,-3.000000,7.000000,9.000000,-67.520000,-8.820000
30.087200,1.000000,-11.000000,16396.000000,2.000000,-10.000000,-4.000000,-67.690000,-8.820000
30.089845,9.000000,-4.000000,16393.000000,37.000000,-1.000000,9.000000,-67.880000,-9.200000
30.092230,11.000000,2.000000,16396.000000,9.000000,29.000000,13.000000,-68.060000,-8.900000
30.094732,14.000000,5.000000,16394.000000,9.000000,-25.000000,-4.000000,-68.230000,-8.820000
30.097357,6.000000,9.000000,16386.000000,-15.000000,-10.000000,-7.000000,-68.420000,-9.200000
30.275343,8.000000,0.000000,16386.000000,15.000000,-4.000000,11.000000,-68.600000,-9.360000
30.278402,8.000000,-15.000000,16395.000000,10.000000,-3.000000,-4.000000,-68.790000,-9.510000
30.279299,1.000000,-8.000000,16385.000000,13.000000,-10.000000,1.000000,-68.980000,-9.590000
30.280149,16.000000,8.000000,16398.000000,14.000000,19.000000,-20.000000,-69.180000,-9.820000
30.282459,8.000000,-6.000000,16394.000000,2.000000,24.000000,-10.000000,-69.380000,-9.970000
30.284667,17.000000,-3.000000,16376.000000,12.000000,-11.000000,-4.000000,-69.580000,-10.050000
30.286060,16.000000,-6.000000,16376.000000,-13.000000,-6.000000,15.000000,-69.770000,-9.510000
30.289006,15.000000,11.000000,16380.000000,2.000000,6.000000,-3.000000,-69.960000,-9.590000
30.290166,13.000000,-5.000000,16392.000000,-19.000000,-3.000000,16.000000,-70.150000,-9.200000
30.291058,19.000000,-7.000000,16381.000000,0.000000,10.000000,4.000000,-70.330000,-9.280000
30.291819,-8.000000,0.000000,16381.000000,-20.000000,9.000000,-17.000000,-70.510000,-8.970000
30.292533,5.000000,5.000000,16396.000000,-5.000000,0.000000,-9.000000,-70.690000,-8.970000
30.293479,13.000000,-14.000000,16362.000000,2.000000,-5.000000,-19.000000,-70.870000,-8.820000
30.300054,-3.000000,-3.000000,16395.000000,3.000000,6.000000,-19.000000,-71.050000,-9.130000
30.482694,15.000000,-16.000000,16388.000000,11.000000,-12.000000,15.000000,-71.240000,-9.280000
30.485203,2.000000,-10.000000,16387.000000,15.000000,-17.000000,-25.000000,-71.430000,-9.510000
30.487420,-3.000000,-16.000000,16384.000000,10.000000,6.000000,2.000000,-71.620000,-9.740000
30.488269,22.000000,-3.000000,16389.000000,8.000000,-11.000000,10.000000,-71.820000,-9.820000
30.489042,19.000000,14.000000,16387.000000,17.000000,-10.000000,-4.000000,-72.020000,-10.280000
30.489683,19.000000,9.000000,16407.000000,-12.000000,17.000000,-8.000000,-72.230000,-10.510000
30.490322,12.000000,3.000000,16380.000000,2.000000,-9.000000,2.000000,-72.450000,-10.660000
30.491026,7.000000,-7.000000,16388.000000,-5.000000,-6.000000,-1.000000,-72.650000,-10.280000
30.491710,4.000000,-26.000000,16384.000000,-5.000000,-5.000000,-11.000000,-72.860000,-10.200000
30.501423,5.000000,-5.000000,16390.000000,13.000000,16.000000,-3.000000,-73.050000,-9.590000
30.700403,3.000000,-3.000000,16396.000000,9.000000,-6.000000,-8.000000,-73.240000,-9.360000
30.704585,15.000000,10.000000,16381.000000,-10.000000,17.000000,12.000000,-73.420000,-9.200000
30.705464,17.000000,10.000000,16378.000000,1.000000,12.000000,3.000000,-73.600000,-8.970000
30.706188,10.000000,4.000000,16397.000000,2.000000,-5.000000,10.000000,-73.770000,-8.740000
30.706945,11.000000,-7.000000,16377.000000,1.000000,6.000000,-1.000000,-73.950000,-8.820000
30.707639,-5.000000,-11.000000,16395.000000,-5.000000,6.000000,12.000000,-74.130000,-8.820000
30.708241,1.000000,0.000000,16386.000000,-19.000000,7.000000,-7.000000,-74.300000,-8.820000
30.708942,20.000000,10.000000,16380.000000,-10.000000,-1.000000,-27.000000,-74.480000,-8.740000
30.709588,13.000000,0.000000,16383.000000,-19.000000,-21.000000,-14.000000,-74.660000,-9.050000
30.710254,26.000000,-1.000000,16390.000000,-6.000000,-19.000000,-6.000000,-74.850000,-9.510000
30.719903,7.000000,16.000000,16376.000000,-11.000000,-8.000000,2.000000,-75.040000,-9.590000
30.916341,2.000000,-4.000000,16392.000000,-7.000000,-10.000000,-22.000000,-75.240000,-9.820000
30.918275,5.000000,-7.000000,16387.000000,8.000000,-6.000000,-23.000000,-75.430000,-9.660000
30.919012,-3.000000,-15.000000,16391.000000,28.000000,-9.000000,-1.000000,-75.630000,-9.970000
30.919741,10.000000,10.000000,16382.000000,10.000000,-9.000000,-6.000000,-75.830000,-10.050000
30.920401,14.000000,8.000000,16388.000000,29.000000,-15.000000,3.000000,-76.030000,-9.820000
30.920942,15.000000,1.000000,16364.000000,20.000000,-20.000000,7.000000,-76.220000,-9.660000
30.921599,15.000000,0.000000,16388.000000,20.000000,-10.000000,6.000000,-76.410000,-9.430000
30.922207,9.000000,-5.000000,16375.000000,-12.000000,22.000000,-9.000000,-76.590000,-9.200000
30.922862,14.000000,0.000000,16392.000000,-10.000000,-6.000000,-5.000000,-76.770000,-8.970000
30.924245,12.000000,12.000000,16396.000000,15.000000,-12.000000,0.000000,-76.950000,-8.970000
30.940138,5.000000,-13.000000,16374.000000,-6.000000,12.000000,18.000000,-77.130000,-8.740000
31.180723,5.000000,-7.000000,16392.000000,24.000000,-5.000000,18.000000,-77.310000,-8.970000
31.344446,13.000000,-6.000000,16401.000000,-4.000000,-22.000000,12.000000,-77.490000,-9.280000
31.354288,12.000000,-1.000000,16367.000000,-14.000000,1.000000,-22.000000,-77.680000,-9.280000
31.357265,19.000000,-1.000000,16392.000000,-16.000000,7.000000,-18.000000,-77.870000,-9.740000
31.360703,1.000000,5.000000,16383.000000,3.000000,10.000000,9.000000,-78.070000,-9.820000
31.365141,2.000000,-3.000000,16383.000000,-6.000000,21.000000,-1.000000,-78.280000,-10.350000
31.367425,-3.000000,-7.000000,16390.000000,-1.000000,-3.000000,-3.000000,-78.490000,-10.580000
31.370323,5.000000,-19.000000,16381.000000,4.000000,13.000000,19.000000,-78.700000,-10.580000
31.373239,11.000000,14.000000,16387.000000,9.000000,-13.000000,7.000000,-78.910000,-10.430000
31.374502,15.000000,0.000000,16388.000000,10.000000,7.000000,-21.000000,-79.110000,-10.200000
31.375822,18.000000,-3.000000,16400.000000,9.000000,14.000000,3.000000,-79.310000,-9.660000
31.377172,12.000000,3.000000,16384.000000,-21.000000,1.000000,-16.000000,-79.490000,-9.360000
31.378501,1.000000,-3.000000,16393.000000,-27.000000,-8.000000,-32.000000,-79.680000,-9.360000
31.379644,10.000000,2.000000,16387.000000,-15.000000,5.000000,-25.000000,-79.860000,-8.970000
31.381330,-10.000000,-4.000000,16388.000000,15.000000,7.000000,-9.000000,-80.040000,-8.820000
31.384366,9.000000,-11.000000,16391.000000,-5.000000,22.000000,4.000000,-80.210000,-8.590000
31.387319,5.000000,19.000000,16385.000000,1.000000,-17.000000,-5.000000,-80.380000,-8.590000
31.390716,15.000000,-4.000000,16388.000000,7.000000,-13.000000,-3.000000,-80.550000,-8.590000
31.392777,7.000000,-2.000000,16397.000000,-3.000000,-15.000000,-9.000000,-80.730000,-8.820000
31.612562,8.000000,5.000000,16383.000000,3.000000,-12.000000,-11.000000,-80.910000,-9.130000
31.618021,1.000000,-8.000000,16395.000000,12.000000,-17.000000,1.000000,-81.100000,-9.280000
31.620532,0.000000,-15.000000,16392.000000,18.000000,10.000000,3.000000,-81.290000,-9.590000
31.622288,5.000000,-1.000000,16397.000000,-19.000000,-10.000000,-9.000000,-81.490000,-9.970000
31.624141,3.000000,0.000000,16393.000000,0.000000,-17.000000,-5.000000,-81.680000,-9.660000
31.625666,12.000000,13.000000,16401.000000,10.000000,5.000000,-10.000000,-81.880000,-10.120000
31.626834,2.000000,20.000000,16402.000000,-6.000000,12.000000,-33.000000,-82.080000,-9.890000
31.627923,8.000000,-21.000000,16391.000000,1.000000,-15.000000,-8.000000,-82.280000,-9.890000
31.628767,0.000000,-8.000000,16386.000000,-5.000000,-6.000000,-10.000000,-82.470000,-9.740000
31.629579,-4.000000,-6.000000,16378.000000,3.000000,0.000000,-13.000000,-82.660000,-9.430000
31.630346,16.000000,-11.000000,16390.000000,31.000000,-7.000000,-3.000000,-82.850000,-9.280000
31.631162,7.000000,-8.000000,16395.000000,13.000000,-13.000000,0.000000,-83.030000,-8.970000
31.631869,5.000000,11.000000,16387.000000,2.000000,-17.000000,1.000000,-83.210000,-8.970000
31.632673,5.000000,9.000000,16400.000000,1.000000,-9.000000,-20.000000,-83.380000,-8.900000
31.633475,5.000000,-2.000000,16398.000000,18.000000,-19.000000,13.000000,-83.560000,-8.900000
31.842337,4.000000,-9.000000,16399.000000,-7.000000,-11.000000,14.000000,-83.740000,-9.050000
31.845930,-1.000000,-7.000000,16390.000000,30.000000,-19.000000,5.000000,-83.930000,-9.280000
31.846884,1.000000,-6.000000,16388.000000,3.000000,-4.000000,9.000000,-84.120000,-9.660000
31.849555,8.000000,12.000000,16389.000000,-25.000000,-1.000000,-4.000000,-84.320000,-9.820000
31.853320,5.000000,-2.000000,16398.000000,-15.000000,-14.000000,-7.000000,-84.520000,-10.280000
31.855888,10.000000,3.000000,16381.000000,5.000000,5.000000,-3.000000,-84.730000,-10.510000
31.856769,3.000000,-3.000000,16391.000000,27.000000,6.000000,-4.000000,-84.950000,-10.740000
31.857522,3.000000,-17.000000,16385.000000,17.000000,6.000000,16.000000,-85.160000,-10.510000
31.858197,8.000000,-3.000000,16392.000000,27.000000,-5.000000,11.000000,-85.360000,-10.120000
31.858816,18.000000,-7.000000,16396.000000,-2.000000,2.000000,7.000000,-85.550000,-9.660000
31.859502,11.000000,-19.000000,16377.000000,7.000000,-14.000000,-13.000000,-85.740000,-9.130000
32.045881,10.000000,7.000000,16401.000000,24.000000,4.000000,-13.000000,-85.920000,-9.200000
32.050011,9.000000,-2.000000,16391.000000,2.000000,-3.000000,-20.000000,-86.110000,-9.200000
32.051238,-2.000000,1.000000,16394.000000,8.000000,0.000000,-18.000000,-86.280000,-8.820000
32.052301,7.000000,2.000000,16385.000000,11.000000,-13.000000,-8.000000,-86.460000,-8.670000
32.053263,18.000000,1.000000,16393.000000,-5.000000,11.000000,3.000000,-86.630000,-8.820000
32.054070,28.000000,-14.000000,16394.000000,9.000000,2.000000,13.000000,-86.810000,-8.900000
32.054753,9.000000,-9.000000,16378.000000,23.000000,-4.000000,7.000000,-86.990000,-8.970000
32.057378,8.000000,6.000000,16404.000000,5.000000,-3.000000,10.000000,-87.170000,-9.200000
32.060013,-4.000000,3.000000,16397.000000,5.000000,2.000000,-18.000000,-87.360000,-9.430000
32.062124,3.000000,-14.000000,16393.000000,-5.000000,0.000000,-21.000000,-87.550000,-9.430000
32.072801,12.000000,-12.000000,16386.000000,31.000000,-16.000000,-14.000000,-87.750000,-10.050000
32.231849,3.000000,-2.000000,16392.000000,8.000000,-1.000000,-21.000000,-87.950000,-9.740000
32.234567,0.000000,-1.000000,16394.000000,16.000000,-8.000000,7.000000,-88.150000,-10.120000
32.236799,2.000000,-256.000000,16395.000000,19.000000,8.000000,-2.000000,-88.340000,-9.740000
32.237994,8.000000,-3.000000,16393.000000,-22.000000,-4.000000,-18.000000,-88.540000,-9.740000
32.238699,7.000000,-4.000000,16373.000000,6.000000,-21.000000,-6.000000,-88.730000,-9.820000
32.239410,-6.000000,5.000000,16383.000000,-12.000000,16.000000,-24.000000,-88.920000,-9.510000
32.240112,4.000000,-3.000000,16396.000000,-16.000000,10.000000,12.000000,-89.110000,-9.360000
32.240782,4.000000,-10.000000,16380.000000,-5.000000,-14.000000,-20.000000,-89.290000,-9.130000
32.242323,-1.000000,-12.000000,16391.000000,28.000000,4.000000,2.000000,-89.470000,-8.820000
32.430291,18.000000,-8.000000,16387.000000,13.000000,-4.000000,-9.000000,-89.650000,-8.900000
32.432467,18.000000,-5.000000,16369.000000,19.000000,-4.000000,7.000000,-89.830000,-8.820000
32.433373,7.000000,4.000000,16396.000000,9.000000,-24.000000,-27.000000,-90.010000,-9.280000
32.434959,4.000000,4.000000,16390.000000,27.000000,-6.000000,-4.000000,-90.200000,-9.360000
32.436880,8.000000,5.000000,16396.000000,-7.000000,-13.000000,-12.000000,-90.390000,-9.590000
32.437725,5.000000,1.000000,16395.000000,0.000000,3.000000,16.000000,-90.590000,-9.890000
32.438420,1.000000,-11.000000,16381.000000,14.000000,-17.000000,-5.000000,-90.790000,-10.200000
32.439163,19.000000,-1.000000,16378.000000,29.000000,-22.000000,20.000000,-91.000000,-10.430000
32.440336,1.000000,-2.000000,16388.000000,-21.000000,10.000000,-2.000000,-91.210000,-10.510000
32.445864,8.000000,3.000000,16401.000000,9.000000,-8.000000,-7.000000,-91.420000,-10.280000
32.461658,17.000000,20.000000,16389.000000,26.000000,-26.000000,17.000000,-91.620000,-10.050000
32.628180,-11.000000,13.000000,16393.000000,4.000000,-17.000000,-4.000000,-91.810000,-9.820000
32.630826,19.000000,-9.000000,16386.000000,6.000000,-4.000000,-3.000000,-92.000000,-9.280000
32.632688,4.000000,6.000000,16361.000000,-10.000000,-1.000000,9.000000,-92.180000,-9.280000
32.634222,17.000000,-2.000000,16382.000000,-7.000000,15.000000,5.000000,-92.360000,-8.740000
32.636454,8.000000,-12.000000,16369.000000,9.000000,17.000000,28.000000,-92.540000,-8.900000
32.637831,3.000000,-8.000000,16386.000000,19.000000,0.000000,16.000000,-92.710000,-8.590000
32.639995,1.000000,3.000000,16398.000000,4.000000,-9.000000,-8.000000,-92.890000,-8.820000
32.640896,21.000000,-6.000000,16389.000000,11.000000,-9.000000,-6.000000,-93.070000,-8.970000
32.645815,3.000000,-1.000000,16391.000000,30.000000,-4.000000,7.000000,-93.240000,-8.900000
32.661607,13.000000,-9.000000,16393.000000,1.000000,12.000000,3.000000,-93.420000,-9.050000
32.847099,2.000000,0.000000,16393.000000,7.000000,7.000000,7.000000,-93.610000,-9.510000
32.851752,0.000000,13.000000,16385.000000,17.000000,10.000000,5.000000,-93.810000,-9.660000
32.852640,11.000000,-11.000000,16378.000000,-15.000000,-1.000000,1.000000,-94.010000,-9.890000
32.853425,26.000000,13.000000,16377.000000,-1.000000,-17.000000,5.000000,-94.200000,-9.660000
32.854080,2.000000,-13.000000,16384.000000,18.000000,1.000000,-7.000000,-94.400000,-9.890000
32.854902,-1.000000,-2.000000,16384.000000,-12.000000,-20.000000,-8.000000,-94.600000,-10.050000
32.855903,7.000000,1.000000,16395.000000,-1.000000,-2.000000,-2.000000,-94.800000,-9.890000
32.856830,5.000000,2.000000,16387.000000,-8.000000,0.000000,-7.000000,-94.990000,-9.740000
32.857645,15.000000,-2.000000,16399.000000,36.000000,-37.000000,-18.000000,-95.180000,-9.360000
32.864049,7.000000,2.000000,16391.000000,-4.000000,-14.000000,4.000000,-95.360000,-9.200000
33.043487,15.000000,-1.000000,16389.000000,27.000000,-14.000000,-13.000000,-95.540000,-9.050000
33.045465,12.000000,1.000000,16392.000000,17.000000,10.000000,-9.000000,-95.720000,-8.900000
33.046267,5.000000,-9.000000,16388.000000,3.000000,2.000000,-11.000000,-95.900000,-9.050000
33.047188,-2.000000,-5.000000,16395.000000,4.000000,-3.000000,10.000000,-96.080000,-8.970000
33.049736,11.000000,-3.000000,16386.000000,0.000000,-9.000000,-9.000000,-96.260000,-9.200000
33.052369,5.000000,-5.000000,16389.000000,11.000000,-8.000000,1.000000,-96.450000,-9.430000
33.053846,10.000000,-14.000000,16383.000000,22.000000,-19.000000,9.000000,-96.650000,-9.660000
33.055858,26.000000,6.000000,16389.000000,1.000000,5.000000,7.000000,-96.840000,-9.740000
33.058613,4.000000,3.000000,16387.000000,31.000000,-7.000000,-4.000000,-97.040000,-10.120000
33.066176,16.000000,-1.000000,16378.000000,0.000000,0.000000,-9.000000,-97.250000,-10.350000
33.240810,-3.000000,-11.000000,16392.000000,3.000000,15.000000,-8.000000,-97.460000,-10.280000
33.244070,11.000000,-1.000000,16395.000000,2.000000,-18.000000,-16.000000,-97.660000,-10.200000
33.244999,9.000000,-2.000000,16404.000000,18.000000,10.000000,6.000000,-97.870000,-10.350000
33.245783,0.000000,2.000000,16386.000000,15.000000,-21.000000,-15.000000,-98.070000,-9.890000
33.246503,11.000000,-11.000000,16385.000000,14.000000,-28.000000,-1.000000,-98.250000,-9.430000
33.247899,9.000000,1.000000,16394.000000,13.000000,-27.000000,-9.000000,-98.440000,-9.360000
33.250784,21.000000,-7.000000,16386.000000,15.000000,33.000000,3.000000,-98.620000,-8.970000
33.253330,13.000000,11.000000,16352.000000,9.000000,-17.000000,-12.000000,-98.800000,-8.900000
33.255683,19.000000,-8.000000,16387.000000,15.000000,-19.000000,-9.000000,-98.970000,-8.740000
33.268090,2.000000,6.000000,16379.000000,7.000000,-16.000000,-14.000000,-99.150000,-8.670000
33.447924,14.000000,-4.000000,16383.000000,-26.000000,3.000000,-26.000000,-99.330000,-9.050000
33.450283,17.000000,-1.000000,16392.000000,15.000000,4.000000,-23.000000,-99.510000,-9.050000
33.451165,23.000000,-15.000000,16389.000000,-10.000000,-1.000000,-18.000000,-99.690000,-9.200000
33.451893,16.000000,1.000000,16386.000000,6.000000,-25.000000,-8.000000,-99.890000,-9.590000
33.452531,10.000000,5.000000,16394.000000,42.000000,-11.000000,14.000000,-100.080000,-9.510000
33.453222,9.000000,-6.000000,16394.000000,-7.000000,9.000000,-5.000000,-100.270000,-9.970000
33.456285,8.000000,6.000000,16371.000000,-9.000000,-15.000000,-4.000000,-100.470000,-9.660000
