Time_s,AccX,AccY,AccZ,GyrX,GyrY,GyrZ,EncRad,EncVel
11.016335,-26.000000,-1.000000,16348.000000,35.000000,-57.000000,-148.000000,2.340000,116.810000
11.035593,-17.000000,-27.000000,16349.000000,40.000000,10.000000,-181.000000,2.340000,0.000000
11.037137,-47.000000,4.000000,16494.000000,-135.000000,7.000000,-191.000000,2.340000,0.000000
11.181893,-32.000000,31.000000,16365.000000,32.000000,51.000000,-167.000000,2.340000,0.000000
11.183784,-69.000000,23.000000,16478.000000,12.000000,-12.000000,-180.000000,2.340000,0.000000
11.184871,-32.000000,28.000000,16371.000000,-10.000000,2.000000,-151.000000,2.340000,0.000000
11.186208,-16.000000,20.000000,16350.000000,15.000000,-10.000000,-172.000000,2.340000,0.000000
11.186813,-12.000000,19.000000,16371.000000,44.000000,30.000000,-194.000000,2.340000,0.000000
11.187368,-31.000000,8.000000,16392.000000,27.000000,3.000000,-155.000000,2.340000,0.000000
11.187802,-29.000000,9.000000,16380.000000,-5.000000,-6.000000,-169.000000,2.340000,0.000000
11.198887,-28.000000,39.000000,16382.000000,14.000000,17.000000,-174.000000,2.340000,0.000000
11.213174,-50.000000,51.000000,16411.000000,19.000000,18.000000,-187.000000,2.340000,0.000000
11.310068,-30.000000,40.000000,16399.000000,56.000000,-6.000000,-165.000000,2.340000,0.000000
11.422829,6.000000,-51.000000,16259.000000,-11.000000,-27.000000,-170.000000,2.340000,0.000000
11.423976,-25.000000,14.000000,16385.000000,90.000000,13.000000,-214.000000,2.340000,0.000000
11.426946,-18.000000,68.000000,16383.000000,120.000000,-8.000000,-193.000000,2.340000,0.000000
11.429503,-26.000000,50.000000,16390.000000,36.000000,28.000000,-176.000000,2.340000,0.000000
11.431381,-27.000000,40.000000,16353.000000,-4.000000,-16.000000,-172.000000,2.340000,0.000000
11.432429,-32.000000,37.000000,16326.000000,30.000000,11.000000,-185.000000,2.340000,0.000000
11.433054,-33.000000,42.000000,16392.000000,15.000000,5.000000,-159.000000,2.340000,0.000000
11.435233,-29.000000,36.000000,16389.000000,-21.000000,2.000000,-187.000000,2.340000,0.000000
11.437210,-15.000000,19.000000,16387.000000,-16.000000,-15.000000,-182.000000,2.340000,0.000000
11.439089,-27.000000,65.000000,16394.000000,-17.000000,-12.000000,-160.000000,2.340000,0.000000
11.462625,-43.000000,63.000000,16378.000000,-82.000000,4.000000,-177.000000,2.340000,0.000000
11.640344,-37.000000,47.000000,16379.000000,-113.000000,-30.000000,-163.000000,2.340000,0.000000
11.642069,-24.000000,22.000000,16296.000000,-114.000000,4.000000,-168.000000,2.340000,0.000000
11.643419,-28.000000,26.000000,16382.000000,-62.000000,16.000000,-177.000000,2.340000,0.000000
11.644055,-38.000000,46.000000,16370.000000,-25.000000,-16.000000,-179.000000,2.340000,0.000000
11.644773,-9.000000,-49.000000,16358.000000,-35.000000,27.000000,-174.000000,2.340000,0.000000
11.646975,-18.000000,37.000000,16373.000000,-44.000000,-19.000000,-158.000000,2.340000,0.000000
11.649097,-40.000000,31.000000,16369.000000,-6.000000,2.000000,-152.000000,2.340000,0.000000
11.651284,-40.000000,22.000000,16378.000000,14.000000,-3.000000,-172.000000,2.340000,0.000000
11.653329,-36.000000,24.000000,16355.000000,30.000000,2.000000,-170.000000,2.340000,0.000000
11.654656,-31.000000,23.000000,16375.000000,62.000000,13.000000,-177.000000,2.340000,0.000000
11.796225,-32.000000,36.000000,16389.000000,68.000000,-4.000000,-170.000000,2.340000,0.000000
11.797329,-19.000000,35.000000,16362.000000,104.000000,-4.000000,-168.000000,2.340000,0.000000
11.798073,-22.000000,35.000000,16374.000000,104.000000,-12.000000,-152.000000,2.340000,0.000000
11.800336,-20.000000,49.000000,16366.000000,100.000000,-20.000000,-169.000000,2.340000,0.000000
11.802644,-33.000000,42.000000,16374.000000,88.000000,15.000000,-165.000000,2.340000,0.000000
11.804934,-32.000000,47.000000,16387.000000,23.000000,-5.000000,-179.000000,2.340000,0.000000
11.807196,-28.000000,41.000000,16383.000000,31.000000,13.000000,-206.000000,2.340000,0.000000
11.819055,-27.000000,44.000000,16386.000000,99.000000,-6.000000,-180.000000,2.340000,0.000000
12.085445,-35.000000,69.000000,16390.000000,59.000000,25.000000,-175.000000,2.340000,0.000000
12.088614,-18.000000,59.000000,16387.000000,63.000000,-19.000000,-184.000000,2.340000,0.000000
12.091412,-29.000000,50.000000,16384.000000,52.000000,4.000000,-198.000000,2.340000,0.000000
12.093750,-30.000000,53.000000,16377.000000,60.000000,7.000000,-170.000000,2.340000,0.000000
12.096493,-17.000000,84.000000,16325.000000,84.000000,-15.000000,-175.000000,2.340000,0.000000
12.098808,-32.000000,57.000000,16416.000000,80.000000,2.000000,-177.000000,2.340000,0.000000
12.101393,-20.000000,83.000000,16348.000000,74.000000,14.000000,-176.000000,2.340000,0.000000
12.103627,-64.000000,101.000000,16380.000000,83.000000,10.000000,-192.000000,2.340000,0.000000
12.106014,-20.000000,13.000000,16358.000000,32.000000,34.000000,-179.000000,2.340000,0.000000
12.108098,-37.000000,59.000000,16392.000000,80.000000,9.000000,-182.000000,2.340000,0.000000
12.110270,-22.000000,72.000000,16416.000000,69.000000,8.000000,-141.000000,2.340000,0.000000
12.112847,-11.000000,50.000000,16332.000000,53.000000,15.000000,-179.000000,2.340000,0.000000
12.115546,-14.000000,99.000000,16381.000000,30.000000,39.000000,-174.000000,2.340000,0.000000
12.118007,-52.000000,66.000000,16395.000000,24.000000,15.000000,-181.000000,2.340000,0.000000
12.120218,-39.000000,67.000000,16366.000000,45.000000,24.000000,-191.000000,2.340000,0.000000
12.323136,-24.000000,65.000000,16383.000000,74.000000,-19.000000,-185.000000,2.340000,0.000000
12.324281,-18.000000,65.000000,16380.000000,242.000000,18.000000,-177.000000,2.340000,0.000000
12.325237,-23.000000,104.000000,16367.000000,234.000000,14.000000,-179.000000,2.340000,0.000000
12.326875,-32.000000,99.000000,16369.000000,59.000000,-17.000000,-174.000000,2.340000,0.000000
12.328559,-32.000000,104.000000,16373.000000,27.000000,-4.000000,-182.000000,2.340000,0.000000
12.332005,-46.000000,99.000000,16384.000000,-16.000000,-2.000000,-171.000000,2.340000,0.000000
12.333366,-55.000000,79.000000,16393.000000,-68.000000,-2.000000,-187.000000,2.340000,0.000000
12.334311,-31.000000,87.000000,16371.000000,-27.000000,5.000000,-172.000000,2.340000,0.000000
12.336288,-27.000000,95.000000,16359.000000,24.000000,2.000000,-185.000000,2.340000,0.000000
12.337286,-36.000000,82.000000,16388.000000,93.000000,-3.000000,-169.000000,2.340000,0.000000
12.502896,-24.000000,103.000000,16385.000000,195.000000,24.000000,-179.000000,2.340000,0.000000
12.504876,-18.000000,114.000000,16371.000000,189.000000,40.000000,-176.000000,2.340000,0.000000
12.505664,-51.000000,81.000000,16366.000000,59.000000,5.000000,-197.000000,2.340000,0.000000
12.506307,-38.000000,100.000000,16362.000000,104.000000,0.000000,-198.000000,2.340000,0.000000
12.506817,-29.000000,109.000000,16393.000000,79.000000,8.000000,-171.000000,2.340000,0.000000
12.507432,-20.000000,113.000000,16391.000000,81.000000,9.000000,-180.000000,2.340000,0.000000
12.508038,-17.000000,129.000000,16379.000000,92.000000,2.000000,-164.000000,2.340000,0.000000
12.508704,-38.000000,114.000000,16374.000000,18.000000,2.000000,-180.000000,2.340000,0.000000
12.509588,-38.000000,109.000000,16378.000000,-38.000000,7.000000,-169.000000,2.340000,0.000000
12.517561,-57.000000,98.000000,16377.000000,-85.000000,-14.000000,-163.000000,2.340000,0.000000
12.531246,-44.000000,78.000000,16397.000000,-139.000000,-18.000000,-175.000000,2.340000,0.000000
12.753931,-35.000000,113.000000,16398.000000,-298.000000,-36.000000,-171.000000,2.340000,0.000000
12.945616,-11.000000,95.000000,16375.000000,-297.000000,7.000000,-180.000000,2.340000,0.000000
12.948525,-31.000000,92.000000,16386.000000,-261.000000,-27.000000,-179.000000,2.340000,0.000000
12.950209,-30.000000,59.000000,16383.000000,-228.000000,-20.000000,-186.000000,2.340000,0.000000
12.953116,-32.000000,60.000000,16366.000000,-191.000000,-8.000000,-171.000000,2.340000,0.000000
12.955957,-46.000000,58.000000,16383.000000,-192.000000,-29.000000,-162.000000,2.340000,0.000000
12.958533,-44.000000,49.000000,16363.000000,-200.000000,-21.000000,-181.000000,2.340000,0.000000
12.961650,-36.000000,58.000000,16390.000000,-169.000000,2.000000,-178.000000,2.340000,0.000000
12.964442,-14.000000,57.000000,16341.000000,-40.000000,-13.000000,-184.000000,2.340000,0.000000
12.967689,-4.000000,38.000000,16322.000000,-77.000000,-19.000000,-199.000000,2.340000,0.000000
12.970911,-25.000000,79.000000,16418.000000,-54.000000,26.000000,-180.000000,2.340000,0.000000
12.974358,-33.000000,43.000000,16355.000000,-139.000000,-21.000000,-165.000000,2.340000,0.000000
12.977054,-42.000000,24.000000,16366.000000,-214.000000,23.000000,-181.000000,2.340000,0.000000
12.979739,-42.000000,27.000000,16383.000000,-109.000000,23.000000,-171.000000,2.340000,0.000000
12.982164,-35.000000,52.000000,16376.000000,-52.000000,4.000000,-157.000000,2.340000,0.000000
12.984880,-16.000000,47.000000,16382.000000,-29.000000,0.000000,-165.000000,2.340000,0.000000
12.987453,-30.000000,49.000000,16390.000000,-52.000000,2.000000,-186.000000,2.340000,0.000000
12.989775,-24.000000,42.000000,16425.000000,-26.000000,-8.000000,-180.000000,2.340000,0.000000
12.991983,-8.000000,55.000000,16391.000000,9.000000,5.000000,-164.000000,2.340000,0.000000
12.993705,-32.000000,70.000000,16413.000000,-42.000000,1.000000,-172.000000,2.340000,0.000000
13.189980,-56.000000,28.000000,16394.000000,-19.000000,10.000000,-158.000000,2.340000,0.000000
13.191201,-38.000000,31.000000,16359.000000,-13.000000,-24.000000,-187.000000,2.340000,0.000000
13.192727,-43.000000,24.000000,16384.000000,11.000000,-1.000000,-148.000000,2.340000,0.000000
13.386300,-23.000000,65.000000,16408.000000,16.000000,24.000000,-166.000000,2.340000,0.000000
13.389558,-9.000000,62.000000,16369.000000,22.000000,1.000000,-174.000000,2.340000,0.000000
13.391182,-6.000000,52.000000,16300.000000,17.000000,3.000000,-154.000000,2.340000,0.000000
13.392873,-28.000000,45.000000,16401.000000,48.000000,-4.000000,-151.000000,2.340000,0.000000
13.393641,-22.000000,60.000000,16405.000000,47.000000,4.000000,-176.000000,2.340000,0.000000
13.395409,-38.000000,43.000000,16385.000000,53.000000,17.000000,-160.000000,2.340000,0.000000
13.397606,-50.000000,41.000000,16387.000000,22.000000,23.000000,-169.000000,2.340000,0.000000
13.399378,-38.000000,39.000000,16379.000000,43.000000,-45.000000,-167.000000,2.340000,0.000000
13.402111,-35.000000,45.000000,16383.000000,67.000000,-16.000000,-172.000000,2.340000,0.000000
13.405022,-10.000000,64.000000,16391.000000,51.000000,-9.000000,-159.000000,2.340000,0.000000
13.407152,-15.000000,57.000000,16386.000000,36.000000,5.000000,-169.000000,2.340000,0.000000
13.409120,-20.000000,62.000000,16393.000000,5.000000,-23.000000,-158.000000,2.340000,0.000000
13.410687,-50.000000,44.000000,16390.000000,8.000000,-5.000000,-165.000000,2.340000,0.000000
13.412148,-51.000000,39.000000,16373.000000,-8.000000,15.000000,-190.000000,2.340000,0.000000
13.414557,-37.000000,38.000000,16375.000000,-78.000000,10.000000,-179.000000,2.340000,0.000000
13.416840,-17.000000,38.000000,16385.000000,-55.000000,18.000000,-177.000000,2.340000,0.000000
13.419945,-24.000000,49.000000,16391.000000,-94.000000,-17.000000,-152.000000,2.340000,0.000000
13.422469,-20.000000,50.000000,16403.000000,-75.000000,10.000000,-171.000000,2.340000,0.000000
13.424672,-26.000000,46.000000,16406.000000,-93.000000,-3.000000,-185.000000,2.340000,0.000000
13.426836,-35.000000,35.000000,16374.000000,-47.000000,12.000000,-184.000000,2.340000,0.000000
13.429784,-30.000000,35.000000,16378.000000,-44.000000,-2.000000,-164.000000,2.340000,0.000000
13.616835,-36.000000,24.000000,16395.000000,-63.000000,12.000000,-169.000000,2.340000,0.000000
13.619200,-36.000000,18.000000,16393.000000,-48.000000,16.000000,-164.000000,2.340000,0.000000
13.621840,-22.000000,46.000000,16381.000000,-42.000000,-9.000000,-178.000000,2.340000,0.000000
13.624936,-18.000000,50.000000,16381.000000,-34.000000,-1.000000,-174.000000,2.340000,0.000000
13.626546,-32.000000,35.000000,16384.000000,-18.000000,7.000000,-161.000000,2.340000,0.000000
13.806951,-45.000000,32.000000,16387.000000,-20.000000,28.000000,-178.000000,2.340000,0.000000
13.809182,-38.000000,18.000000,16376.000000,9.000000,10.000000,-164.000000,2.340000,0.000000
13.810318,-37.000000,36.000000,16383.000000,4.000000,15.000000,-175.000000,2.340000,0.000000
13.811646,-16.000000,39.000000,16393.000000,9.000000,16.000000,-181.000000,2.340000,0.000000
13.814541,-37.000000,30.000000,16401.000000,5.000000,7.000000,-170.000000,2.340000,0.000000
13.817489,-42.000000,37.000000,16387.000000,15.000000,12.000000,-165.000000,2.340000,0.000000
13.820647,-26.000000,45.000000,16401.000000,9.000000,21.000000,-179.000000,2.340000,0.000000
13.822039,-34.000000,45.000000,16379.000000,11.000000,5.000000,-166.000000,2.340000,0.000000
13.828383,-31.000000,25.000000,16376.000000,16.000000,17.000000,-180.000000,2.340000,0.000000
13.831422,-30.000000,34.000000,16397.000000,-5.000000,25.000000,-162.000000,2.340000,0.000000
13.834298,-25.000000,18.000000,16375.000000,-15.000000,-8.000000,-172.000000,2.340000,0.000000
13.837322,-51.000000,35.000000,16381.000000,2.000000,-31.000000,-168.000000,2.340000,0.000000
13.840826,-31.000000,30.000000,16379.000000,-1.000000,23.000000,-167.000000,2.340000,0.000000
13.843630,-31.000000,30.000000,16404.000000,12.000000,1.000000,-157.000000,2.340000,0.000000
13.847518,-30.000000,49.000000,16385.000000,55.000000,-5.000000,-143.000000,2.340000,0.000000
14.080307,-29.000000,38.000000,16381.000000,32.000000,8.000000,-166.000000,2.340000,0.000000
14.083175,-24.000000,30.000000,16380.000000,43.000000,-25.000000,-163.000000,2.340000,0.000000
14.085837,-24.000000,32.000000,16379.000000,2.000000,-12.000000,-181.000000,2.340000,0.000000
14.293755,-30.000000,33.000000,16389.000000,6.000000,1.000000,-169.000000,2.340000,0.000000
14.297147,-31.000000,52.000000,16383.000000,17.000000,4.000000,-157.000000,2.340000,0.000000
14.299687,-31.000000,41.000000,16378.000000,31.000000,0.000000,-146.000000,2.340000,0.000000
14.302413,-19.000000,57.000000,16379.000000,39.000000,5.000000,-177.000000,2.340000,0.000000
14.305103,-17.000000,63.000000,16367.000000,26.000000,12.000000,-164.000000,2.340000,0.000000
14.307791,-36.000000,38.000000,16381.000000,34.000000,6.000000,-156.000000,2.340000,0.000000
14.309218,-27.000000,46.000000,16393.000000,3.000000,-8.000000,-180.000000,2.340000,0.000000
14.310985,-38.000000,41.000000,16393.000000,-10.000000,5.000000,-180.000000,2.340000,0.000000
14.313609,-36.000000,48.000000,16380.000000,22.000000,30.000000,-180.000000,2.340000,0.000000
14.314949,-23.000000,37.000000,16385.000000,5.000000,7.000000,-172.000000,2.340000,0.000000
14.316415,-18.000000,52.000000,16401.000000,14.000000,19.000000,-186.000000,2.340000,0.000000
14.318591,-30.000000,44.000000,16399.000000,-6.000000,25.000000,-186.000000,2.340000,0.000000
14.322190,-32.000000,42.000000,16399.000000,-35.000000,15.000000,-202.000000,2.340000,0.000000
14.324931,-34.000000,48.000000,16395.000000,28.000000,30.000000,-186.000000,2.340000,0.000000
14.327800,-44.000000,39.000000,16388.000000,22.000000,12.000000,-164.000000,2.340000,0.000000
14.331057,-27.000000,45.000000,16393.000000,49.000000,29.000000,-173.000000,2.340000,0.000000
14.333730,-20.000000,38.000000,16380.000000,28.000000,11.000000,-184.000000,2.340000,0.000000
14.336446,-27.000000,48.000000,16372.000000,52.000000,12.000000,-179.000000,2.340000,0.000000
14.339443,-20.000000,56.000000,16405.000000,109.000000,-6.000000,-192.000000,2.340000,0.000000
14.536336,-46.000000,68.000000,16376.000000,162.000000,22.000000,-181.000000,2.340000,0.000000
14.538878,-48.000000,60.000000,16378.000000,80.000000,3.000000,-184.000000,2.340000,0.000000
14.541250,-52.000000,64.000000,16380.000000,17.000000,6.000000,-196.000000,2.340000,0.000000
14.544494,-19.000000,55.000000,16379.000000,-27.000000,-12.000000,-211.000000,2.340000,0.000000
14.737621,-24.000000,61.000000,16388.000000,-39.000000,4.000000,-181.000000,2.340000,0.000000
14.740377,-27.000000,52.000000,16380.000000,-41.000000,22.000000,-173.000000,2.340000,0.000000
14.741801,-27.000000,57.000000,16388.000000,-10.000000,28.000000,-164.000000,2.340000,0.000000
14.743909,-27.000000,64.000000,16377.000000,79.000000,5.000000,-204.000000,2.340000,0.000000
14.746830,-38.000000,65.000000,16385.000000,117.000000,66.000000,-189.000000,2.340000,0.000000
14.748566,-62.000000,71.000000,16384.000000,139.000000,23.000000,-168.000000,2.340000,0.000000
14.750607,-50.000000,74.000000,16383.000000,105.000000,-6.000000,-192.000000,2.340000,0.000000
14.753101,-33.000000,85.000000,16385.000000,5.000000,16.000000,-182.000000,2.340000,0.000000
14.755514,-35.000000,100.000000,16392.000000,-4.000000,-13.000000,-192.000000,2.340000,0.000000
14.758050,-22.000000,71.000000,16380.000000,-44.000000,-25.000000,-184.000000,2.340000,0.000000
14.760794,-35.000000,64.000000,16387.000000,-64.000000,3.000000,-197.000000,2.340000,0.000000
14.762163,-43.000000,58.000000,16373.000000,-6.000000,10.000000,-190.000000,2.340000,0.000000
14.763274,-36.000000,60.000000,16368.000000,-13.000000,-16.000000,-200.000000,2.340000,0.000000
14.764272,-36.000000,77.000000,16388.000000,6.000000,0.000000,-185.000000,2.340000,0.000000
14.765116,-40.000000,77.000000,16381.000000,18.000000,1.000000,-161.000000,2.340000,0.000000
14.765969,-26.000000,75.000000,16387.000000,15.000000,-11.000000,-174.000000,2.340000,0.000000
14.766751,-35.000000,78.000000,16387.000000,-30.000000,-6.000000,-180.000000,2.340000,0.000000
14.767439,-34.000000,67.000000,16395.000000,13.000000,-29.000000,-164.000000,2.340000,0.000000
14.768090,-33.000000,70.000000,16379.000000,-6.000000,24.000000,-172.000000,2.340000,0.000000
14.768881,-42.000000,62.000000,16376.000000,45.000000,-6.000000,-182.000000,2.340000,0.000000
14.769756,-51.000000,68.000000,16380.000000,68.000000,8.000000,-187.000000,2.340000,0.000000
14.776138,-38.000000,65.000000,16397.000000,138.000000,30.000000,-184.000000,2.340000,0.000000
14.945411,-30.000000,90.000000,16368.000000,60.000000,21.000000,-189.000000,2.340000,0.000000
14.948672,-35.000000,76.000000,16380.000000,91.000000,8.000000,-184.000000,2.340000,0.000000
14.949804,-43.000000,79.000000,16396.000000,-47.000000,-23.000000,-188.000000,2.340000,0.000000
14.950876,-66.000000,74.000000,16386.000000,-115.000000,-13.000000,-199.000000,2.340000,0.000000
14.951715,-48.000000,79.000000,16383.000000,-149.000000,-23.000000,-208.000000,2.340000,0.000000
14.952592,-45.000000,59.000000,16392.000000,-125.000000,16.000000,-185.000000,2.340000,0.000000
14.953723,-30.000000,45.000000,16387.000000,-15.000000,-7.000000,-181.000000,2.340000,0.000000
14.954701,-22.000000,76.000000,16381.000000,186.000000,31.000000,-199.000000,2.340000,0.000000
14.955609,-14.000000,87.000000,16390.000000,176.000000,39.000000,-208.000000,2.340000,0.000000
15.129770,-31.000000,87.000000,16395.000000,199.000000,29.000000,-209.000000,2.340000,0.000000
15.131523,-33.000000,115.000000,16386.000000,277.000000,2.000000,-195.000000,2.340000,0.000000
15.138554,-39.000000,121.000000,16391.000000,244.000000,-4.000000,-213.000000,2.340000,0.000000
15.141196,-61.000000,141.000000,16381.000000,133.000000,36.000000,-203.000000,2.340000,0.000000
15.143626,-28.000000,104.000000,16386.000000,-88.000000,4.000000,-186.000000,2.340000,0.000000
15.145358,-17.000000,110.000000,16397.000000,-152.000000,-26.000000,-167.000000,2.340000,0.000000
15.148468,-18.000000,108.000000,16386.000000,-152.000000,-2.000000,-162.000000,2.340000,0.000000
15.152241,-21.000000,101.000000,16379.000000,-138.000000,-11.000000,-192.000000,2.340000,0.000000
15.154350,-45.000000,88.000000,16387.000000,-141.000000,-13.000000,-193.000000,2.340000,0.000000
15.155763,-35.000000,58.000000,16383.000000,-30.000000,0.000000,-190.000000,2.340000,0.000000
15.370141,-39.000000,83.000000,16399.000000,179.000000,30.000000,-189.000000,2.340000,0.000000
15.373166,-34.000000,102.000000,16390.000000,149.000000,9.000000,-179.000000,2.340000,0.000000
15.374106,-42.000000,101.000000,16397.000000,117.000000,29.000000,-171.000000,2.340000,0.000000
15.374866,-30.000000,107.000000,16378.000000,177.000000,10.000000,-178.000000,2.340000,0.000000
15.375616,-39.000000,102.000000,16400.000000,156.000000,45.000000,-193.000000,2.340000,0.000000
15.376277,-43.000000,120.000000,16397.000000,189.000000,34.000000,-192.000000,2.340000,0.000000
15.377059,-32.000000,128.000000,16392.000000,121.000000,19.000000,-170.000000,2.340000,0.000000
15.377883,-27.000000,122.000000,16391.000000,69.000000,-1.000000,-166.000000,2.340000,0.000000
15.378743,-49.000000,130.000000,16414.000000,64.000000,-2.000000,-178.000000,2.340000,0.000000
15.379616,-35.000000,128.000000,16392.000000,81.000000,11.000000,-183.000000,2.340000,0.000000
15.381515,-40.000000,133.000000,16398.000000,49.000000,7.000000,-164.000000,2.340000,0.000000
15.540842,-40.000000,116.000000,16384.000000,7.000000,-6.000000,-172.000000,2.340000,0.000000
15.542951,-34.000000,129.000000,16396.000000,-22.000000,-12.000000,-186.000000,2.340000,0.000000
15.544110,-27.000000,111.000000,16415.000000,25.000000,3.000000,-182.000000,2.340000,0.000000
15.546908,-34.000000,127.000000,16389.000000,58.000000,-12.000000,-174.000000,2.340000,0.000000
15.549710,-39.000000,124.000000,16418.000000,56.000000,10.000000,-175.000000,2.340000,0.000000
15.552542,-48.000000,139.000000,16406.000000,77.000000,8.000000,-175.000000,2.340000,0.000000
15.554962,-35.000000,140.000000,16413.000000,117.000000,30.000000,-203.000000,2.340000,0.000000
15.557371,-36.000000,136.000000,16393.000000,70.000000,32.000000,-203.000000,2.340000,0.000000
15.559662,-32.000000,160.000000,16382.000000,18.000000,20.000000,-185.000000,2.340000,0.000000
15.723598,-30.000000,134.000000,16395.000000,-16.000000,13.000000,-185.000000,2.340000,0.000000
15.726589,-33.000000,143.000000,16409.000000,-23.000000,1.000000,-196.000000,2.340000,0.000000
15.727439,-30.000000,122.000000,16395.000000,12.000000,19.000000,-183.000000,2.340000,0.000000
15.729122,-54.000000,142.000000,16398.000000,56.000000,7.000000,-195.000000,2.340000,0.000000
15.731822,-56.000000,139.000000,16381.000000,18.000000,4.000000,-190.000000,2.340000,0.000000
15.733074,-56.000000,127.000000,16396.000000,22.000000,4.000000,-194.000000,2.340000,0.000000
15.734053,-44.000000,151.000000,16377.000000,50.000000,15.000000,-183.000000,2.340000,0.000000
15.734925,-26.000000,155.000000,16395.000000,-30.000000,4.000000,-182.000000,2.340000,0.000000
15.737963,-34.000000,132.000000,16411.000000,-59.000000,9.000000,-178.000000,2.340000,0.000000
15.753424,-42.000000,130.000000,16388.000000,-30.000000,-3.000000,-168.000000,2.340000,0.000000
15.904648,-33.000000,142.000000,16395.000000,-21.000000,7.000000,-198.000000,2.340000,0.000000
15.906864,-48.000000,141.000000,16392.000000,0.000000,9.000000,-189.000000,2.340000,0.000000
15.907606,-40.000000,134.000000,16391.000000,0.000000,16.000000,-189.000000,2.340000,0.000000
15.908391,-54.000000,141.000000,16387.000000,7.000000,-1.000000,-191.000000,2.340000,0.000000
15.909997,-27.000000,148.000000,16390.000000,42.000000,21.000000,-198.000000,2.340000,0.000000
15.911606,-33.000000,148.000000,16387.000000,72.000000,20.000000,-190.000000,2.340000,0.000000
15.913514,-43.000000,151.000000,16369.000000,15.000000,-6.000000,-211.000000,2.340000,0.000000
15.915330,-59.000000,141.000000,16391.000000,-12.000000,15.000000,-184.000000,2.340000,0.000000
16.104707,-55.000000,142.000000,16381.000000,10.000000,3.000000,-188.000000,2.340000,0.000000
16.110025,-50.000000,141.000000,16388.000000,11.000000,-9.000000,-157.000000,2.340000,0.000000
16.111220,-52.000000,148.000000,16387.000000,-76.000000,-22.000000,-178.000000,2.340000,0.000000
16.112210,-39.000000,126.000000,16387.000000,-88.000000,-7.000000,-168.000000,2.340000,0.000000
16.113215,-42.000000,162.000000,16399.000000,-58.000000,-23.000000,-187.000000,2.340000,0.000000
16.114107,-41.000000,156.000000,16388.000000,-143.000000,-54.000000,-200.000000,2.340000,0.000000
16.114953,-50.000000,148.000000,16372.000000,-228.000000,-79.000000,-184.000000,2.340000,0.000000
16.115747,-43.000000,136.000000,16363.000000,-322.000000,-89.000000,-191.000000,2.340000,0.000000
16.116465,-37.000000,147.000000,16346.000000,-528.000000,-117.000000,-182.000000,2.340000,0.000000
16.117485,-38.000000,98.000000,16394.000000,-848.000000,-129.000000,-195.000000,2.340000,0.000000
16.323270,-17.000000,90.000000,16411.000000,-556.000000,-72.000000,-146.000000,2.340000,0.000000
16.326047,9.000000,28.000000,16241.000000,-393.000000,-88.000000,-166.000000,2.340000,0.000000
16.326864,-14.000000,55.000000,16363.000000,-313.000000,-17.000000,-172.000000,2.340000,0.000000
16.329386,-23.000000,18.000000,16388.000000,-540.000000,-32.000000,-187.000000,2.340000,0.000000
16.332083,-38.000000,-9.000000,16400.000000,-364.000000,10.000000,-161.000000,2.340000,0.000000
16.335141,-39.000000,16.000000,16397.000000,-129.000000,-18.000000,-161.000000,2.340000,0.000000
16.337615,-53.000000,54.000000,16399.000000,-34.000000,-22.000000,-191.000000,2.340000,0.000000
16.339983,-50.000000,37.000000,16371.000000,-76.000000,3.000000,-175.000000,2.340000,0.000000
16.342139,-20.000000,37.000000,16365.000000,-30.000000,-15.000000,-195.000000,2.340000,0.000000
16.344456,-12.000000,35.000000,16375.000000,-27.000000,-6.000000,-176.000000,2.340000,0.000000
16.347142,-17.000000,18.000000,16352.000000,-28.000000,7.000000,-164.000000,2.340000,0.000000
16.509763,-32.000000,13.000000,16379.000000,-27.000000,-17.000000,-197.000000,2.340000,0.000000
16.511719,-27.000000,15.000000,16386.000000,-26.000000,-10.000000,-191.000000,2.340000,0.000000
16.512671,-41.000000,14.000000,16375.000000,-30.000000,-10.000000,-160.000000,2.340000,0.000000
16.514691,-38.000000,35.000000,16389.000000,-25.000000,18.000000,-173.000000,2.340000,0.000000
16.516041,-32.000000,34.000000,16387.000000,-12.000000,17.000000,-183.000000,2.340000,0.000000
16.518019,-24.000000,22.000000,16392.000000,-17.000000,26.000000,-167.000000,2.340000,0.000000
16.520330,-33.000000,18.000000,16375.000000,-13.000000,4.000000,-166.000000,2.340000,0.000000
16.522294,-29.000000,22.000000,16379.000000,-17.000000,4.000000,-163.000000,2.340000,0.000000
16.524198,-33.000000,22.000000,16382.000000,-4.000000,5.000000,-173.000000,2.340000,0.000000
16.529893,-37.000000,31.000000,16385.000000,-20.000000,-4.000000,-181.000000,2.340000,0.000000
16.676258,-43.000000,30.000000,16383.000000,-22.000000,-5.000000,-173.000000,2.340000,0.000000
16.677979,-31.000000,13.000000,16390.000000,-16.000000,-3.000000,-168.000000,2.340000,0.000000
16.678735,-16.000000,18.000000,16395.000000,-23.000000,17.000000,-191.000000,2.340000,0.000000
16.679593,-22.000000,19.000000,16378.000000,-14.000000,-6.000000,-178.000000,2.340000,0.000000
16.680338,-31.000000,9.000000,16385.000000,0.000000,-3.000000,-191.000000,2.340000,0.000000
16.680998,-39.000000,21.000000,16374.000000,-49.000000,-27.000000,-180.000000,2.340000,0.000000
16.681545,-45.000000,32.000000,16376.000000,-13.000000,-15.000000,-181.000000,2.340000,0.000000
16.701045,-37.000000,34.000000,16386.000000,-17.000000,-12.000000,-185.000000,2.340000,0.000000
16.843603,-32.000000,22.000000,16380.000000,0.000000,1.000000,-168.000000,2.340000,0.000000
16.845367,-48.000000,28.000000,16379.000000,13.000000,-18.000000,-181.000000,2.340000,0.000000
16.846294,-25.000000,16.000000,16372.000000,-9.000000,-1.000000,-185.000000,2.340000,0.000000
16.847054,-24.000000,21.000000,16382.000000,17.000000,9.000000,-157.000000,2.340000,0.000000
16.847693,-35.000000,31.000000,16379.000000,-16.000000,-1.000000,-171.000000,2.340000,0.000000
16.848242,-31.000000,12.000000,16346.000000,-25.000000,16.000000,-176.000000,2.340000,0.000000
16.849402,-28.000000,16.000000,16364.000000,-14.000000,-21.000000,-162.000000,2.340000,0.000000
16.853901,-30.000000,14.000000,16381.000000,-4.000000,19.000000,-191.000000,2.340000,0.000000
16.869259,-43.000000,19.000000,16368.000000,16.000000,1.000000,-162.000000,2.340000,0.000000
17.095853,-30.000000,6.000000,16369.000000,-14.000000,-6.000000,-177.000000,2.340000,0.000000
17.100893,-24.000000,18.000000,16376.000000,-4.000000,15.000000,-182.000000,2.340000,0.000000
17.103592,-14.000000,22.000000,16360.000000,11.000000,-14.000000,-165.000000,2.340000,0.000000
17.105967,-37.000000,14.000000,16380.000000,2.000000,-12.000000,-149.000000,2.340000,0.000000
17.108194,-27.000000,11.000000,16369.000000,-23.000000,19.000000,-165.000000,2.340000,0.000000
17.110595,-39.000000,28.000000,16373.000000,22.000000,-3.000000,-179.000000,2.340000,0.000000
17.112977,-33.000000,6.000000,16384.000000,24.000000,19.000000,-160.000000,2.340000,0.000000
17.115764,-33.000000,14.000000,16376.000000,15.000000,0.000000,-176.000000,2.340000,0.000000
17.117341,-22.000000,26.000000,16370.000000,-9.000000,-12.000000,-191.000000,2.340000,0.000000
17.119540,-31.000000,26.000000,16379.000000,-4.000000,27.000000,-178.000000,2.340000,0.000000
17.120996,-37.000000,21.000000,16378.000000,-2.000000,1.000000,-180.000000,2.340000,0.000000
17.121772,-32.000000,32.000000,16388.000000,-15.000000,15.000000,-173.000000,2.340000,0.000000
17.291177,-27.000000,16.000000,16376.000000,-1.000000,-23.000000,-173.000000,2.340000,0.000000
17.292899,-42.000000,15.000000,16382.000000,-10.000000,11.000000,-178.000000,2.340000,0.000000
17.293587,-37.000000,20.000000,16373.000000,-14.000000,23.000000,-178.000000,2.340000,0.000000
17.294149,-18.000000,27.000000,16387.000000,-15.000000,-5.000000,-177.000000,2.340000,0.000000
17.294887,-25.000000,23.000000,16374.000000,-9.000000,16.000000,-183.000000,2.340000,0.000000
17.295551,-27.000000,13.000000,16387.000000,-3.000000,28.000000,-170.000000,2.340000,0.000000
17.296153,-42.000000,23.000000,16381.000000,-12.000000,-18.000000,-189.000000,2.340000,0.000000
17.296846,-28.000000,11.000000,16385.000000,-33.000000,-4.000000,-178.000000,2.340000,0.000000
17.297472,-35.000000,21.000000,16355.000000,-6.000000,1.000000,-168.000000,2.340000,0.000000
17.318483,-41.000000,14.000000,16371.000000,-19.000000,8.000000,-157.000000,2.340000,0.000000
17.491775,-32.000000,15.000000,16379.000000,-3.000000,29.000000,-173.000000,2.340000,0.000000
17.494627,-42.000000,31.000000,16379.000000,23.000000,-20.000000,-187.000000,2.340000,0.000000
17.497236,-26.000000,22.000000,16375.000000,-6.000000,-7.000000,-176.000000,2.340000,0.000000
17.498935,-35.000000,14.000000,16373.000000,-33.000000,17.000000,-185.000000,2.340000,0.000000
17.500059,-41.000000,20.000000,16359.000000,-19.000000,-8.000000,-180.000000,2.340000,0.000000
17.500904,-42.000000,14.000000,16364.000000,-15.000000,15.000000,-189.000000,2.340000,0.000000
17.501642,-36.000000,28.000000,16357.000000,-23.000000,-21.000000,-195.000000,2.340000,0.000000
17.502337,-33.000000,6.000000,16373.000000,-11.000000,-6.000000,-170.000000,2.340000,0.000000
17.502893,-29.000000,27.000000,16372.000000,-30.000000,1.000000,-191.000000,2.340000,0.000000
17.522858,-26.000000,27.000000,16355.000000,0.000000,-15.000000,-169.000000,2.340000,0.000000
17.683436,-31.000000,22.000000,16371.000000,-37.000000,5.000000,-189.000000,2.340000,0.000000
17.688847,-35.000000,9.000000,16390.000000,-2.000000,10.000000,-161.000000,2.340000,0.000000
17.690041,-41.000000,19.000000,16356.000000,-35.000000,-12.000000,-187.000000,2.340000,0.000000
17.691638,-29.000000,-7.000000,16378.000000,-16.000000,-15.000000,-173.000000,2.340000,0.000000
17.693704,-36.000000,13.000000,16377.000000,-11.000000,-16.000000,-198.000000,2.340000,0.000000
17.695161,-37.000000,14.000000,16368.000000,9.000000,6.000000,-178.000000,2.340000,0.000000
17.697051,-41.000000,20.000000,16363.000000,-13.000000,7.000000,-168.000000,2.340000,0.000000
17.698422,-41.000000,35.000000,16373.000000,-14.000000,-36.000000,-174.000000,2.340000,0.000000
17.699790,-28.000000,20.000000,16356.000000,12.000000,-3.000000,-175.000000,2.340000,0.000000
17.708467,-33.000000,21.000000,16339.000000,-15.000000,-5.000000,-184.000000,2.340000,0.000000
17.859745,-36.000000,19.000000,16354.000000,7.000000,-4.000000,-154.000000,2.340000,0.000000
17.861690,-32.000000,11.000000,16351.000000,-36.000000,13.000000,-193.000000,2.340000,0.000000
17.862614,-36.000000,21.000000,16355.000000,-26.000000,28.000000,-170.000000,2.340000,0.000000
17.864141,-37.000000,16.000000,16360.000000,-2.000000,14.000000,-181.000000,2.340000,0.000000
17.865520,-19.000000,20.000000,16379.000000,-44.000000,10.000000,-174.000000,2.340000,0.000000
17.867400,-46.000000,21.000000,16358.000000,-19.000000,-3.000000,-190.000000,2.340000,0.000000
17.868440,-23.000000,9.000000,16369.000000,-12.000000,10.000000,-183.000000,2.340000,0.000000
17.880589,-25.000000,18.000000,16387.000000,-4.000000,-13.000000,-162.000000,2.340000,0.000000
17.897788,-37.000000,-4.000000,16383.000000,-12.000000,11.000000,-185.000000,2.340000,0.000000
18.040853,-32.000000,17.000000,16378.000000,-29.000000,-2.000000,-167.000000,2.340000,0.000000
18.043288,-29.000000,19.000000,16368.000000,-20.000000,-1.000000,-188.000000,2.340000,0.000000
18.044888,-25.000000,18.000000,16380.000000,9.000000,-16.000000,-178.000000,2.340000,0.000000
18.047047,-31.000000,8.000000,16380.000000,16.000000,-3.000000,-177.000000,2.340000,0.000000
18.048922,-32.000000,24.000000,16369.000000,5.000000,13.000000,-187.000000,2.340000,0.000000
18.050318,-32.000000,6.000000,16380.000000,-2.000000,8.000000,-179.000000,2.340000,0.000000
18.051211,-23.000000,15.000000,16384.000000,-15.000000,-13.000000,-167.000000,2.340000,0.000000
18.052098,-35.000000,5.000000,16357.000000,2.000000,21.000000,-181.000000,2.340000,0.000000
18.218060,-20.000000,14.000000,16381.000000,-9.000000,-10.000000,-177.000000,2.340000,0.000000
18.220642,-30.000000,6.000000,16387.000000,-9.000000,0.000000,-180.000000,2.340000,0.000000
18.222744,-37.000000,12.000000,16387.000000,-17.000000,12.000000,-188.000000,2.340000,0.000000
18.224300,-26.000000,24.000000,16381.000000,-12.000000,-9.000000,-165.000000,2.340000,0.000000
18.226239,-37.000000,7.000000,16378.000000,11.000000,7.000000,-142.000000,2.340000,0.000000
18.227062,-35.000000,6.000000,16370.000000,8.000000,-7.000000,-173.000000,2.340000,0.000000
18.227712,-14.000000,8.000000,16364.000000,-3.000000,19.000000,-171.000000,2.340000,0.000000
18.230155,-32.000000,8.000000,16364.000000,2.000000,-6.000000,-169.000000,2.340000,0.000000
18.237914,-19.000000,10.000000,16361.000000,1.000000,-1.000000,-146.000000,2.340000,0.000000
18.381693,-30.000000,21.000000,16365.000000,-29.000000,5.000000,-171.000000,2.340000,0.000000
18.383570,-41.000000,16.000000,16374.000000,-11.000000,-11.000000,-188.000000,2.340000,0.000000
18.384275,-45.000000,4.000000,16370.000000,8.000000,-7.000000,-186.000000,2.340000,0.000000
18.384899,-31.000000,9.000000,16370.000000,4.000000,15.000000,-165.000000,2.340000,0.000000
18.385535,-36.000000,15.000000,16365.000000,2.000000,-12.000000,-185.000000,2.340000,0.000000
18.387564,-23.000000,22.000000,16378.000000,-3.000000,-15.000000,-180.000000,2.340000,0.000000
18.388357,-25.000000,17.000000,16381.000000,17.000000,-11.000000,-164.000000,2.340000,0.000000
18.393941,-19.000000,16.000000,16363.000000,17.000000,18.000000,-172.000000,2.340000,0.000000
18.409208,-25.000000,10.000000,16373.000000,12.000000,16.000000,-163.000000,2.340000,0.000000
18.560741,-30.000000,11.000000,16368.000000,-24.000000,2.000000,-175.000000,2.340000,0.000000
18.566277,-40.000000,16.000000,16356.000000,8.000000,19.000000,-177.000000,2.340000,0.000000
18.568169,-38.000000,26.000000,16365.000000,11.000000,2.000000,-166.000000,2.340000,0.000000
18.570184,-25.000000,21.000000,16374.000000,1.000000,4.000000,-175.000000,2.340000,0.000000
18.571065,-31.000000,6.000000,16372.000000,10.000000,-6.000000,-163.000000,2.340000,0.000000
18.571892,-30.000000,18.000000,16374.000000,-20.000000,20.000000,-180.000000,2.340000,0.000000
18.572548,-30.000000,8.000000,16375.000000,-17.000000,-12.000000,-183.000000,2.340000,0.000000
18.579658,-31.000000,7.000000,16378.000000,-33.000000,3.000000,-168.000000,2.340000,0.000000
18.744236,-33.000000,13.000000,16378.000000,-2.000000,4.000000,-183.000000,2.340000,0.000000
18.750817,-15.000000,14.000000,16389.000000,-9.000000,-22.000000,-175.000000,2.340000,0.000000
18.753085,-21.000000,19.000000,16380.000000,2.000000,2.000000,-178.000000,2.340000,0.000000
18.755364,-38.000000,18.000000,16380.000000,-1.000000,-1.000000,-174.000000,2.340000,0.000000
18.756496,-40.000000,20.000000,16378.000000,12.000000,7.000000,-183.000000,2.340000,0.000000
18.757385,-37.000000,11.000000,16386.000000,-15.000000,-5.000000,-187.000000,2.340000,0.000000
18.758145,-36.000000,12.000000,16379.000000,-32.000000,4.000000,-171.000000,2.340000,0.000000
18.758855,-40.000000,5.000000,16380.000000,0.000000,11.000000,-186.000000,2.340000,0.000000
18.759559,-44.000000,18.000000,16384.000000,-22.000000,-8.000000,-166.000000,2.340000,0.000000
18.913889,-33.000000,7.000000,16382.000000,14.000000,-4.000000,-166.000000,2.340000,0.000000
18.916110,-19.000000,5.000000,16372.000000,2.000000,-2.000000,-176.000000,2.340000,0.000000
18.918548,-37.000000,11.000000,16378.000000,-3.000000,10.000000,-177.000000,2.340000,0.000000
18.920034,-32.000000,9.000000,16374.000000,-11.000000,19.000000,-181.000000,2.340000,0.000000
18.922574,-42.000000,13.000000,16373.000000,-3.000000,29.000000,-161.000000,2.340000,0.000000
18.924496,-31.000000,1.000000,16364.000000,-24.000000,20.000000,-170.000000,2.340000,0.000000
18.926572,-33.000000,21.000000,16369.000000,4.000000,7.000000,-178.000000,2.340000,0.000000
18.929496,-29.000000,11.000000,16384.000000,-18.000000,-18.000000,-163.000000,2.340000,0.000000
18.936988,-34.000000,9.000000,16388.000000,3.000000,-5.000000,-167.000000,2.340000,0.000000
19.088498,-42.000000,12.000000,16379.000000,-6.000000,-1.000000,-188.000000,2.340000,0.000000
19.091730,-42.000000,9.000000,16383.000000,7.000000,7.000000,-184.000000,2.340000,0.000000
19.094010,-23.000000,31.000000,16377.000000,1.000000,4.000000,-182.000000,2.340000,0.000000
19.096466,-23.000000,2.000000,16384.000000,-17.000000,13.000000,-157.000000,2.340000,0.000000
19.098757,-25.000000,15.000000,16381.000000,-5.000000,19.000000,-173.000000,2.340000,0.000000
19.100147,-39.000000,8.000000,16373.000000,2.000000,18.000000,-176.000000,2.340000,0.000000
19.101154,-38.000000,8.000000,16373.000000,-13.000000,7.000000,-176.000000,2.340000,0.000000
19.102675,-47.000000,6.000000,16370.000000,-41.000000,-11.000000,-206.000000,2.340000,0.000000
19.107356,-41.000000,17.000000,16385.000000,-16.000000,2.000000,-180.000000,2.340000,0.000000
19.254303,-35.000000,4.000000,16370.000000,-4.000000,19.000000,-166.000000,2.340000,0.000000
19.255974,-26.000000,24.000000,16379.000000,-4.000000,-1.000000,-153.000000,2.340000,0.000000
19.256707,-23.000000,24.000000,16376.000000,-19.000000,-1.000000,-167.000000,2.340000,0.000000
19.257313,-15.000000,32.000000,16385.000000,14.000000,0.000000,-163.000000,2.340000,0.000000
19.258003,-41.000000,22.000000,16368.000000,-5.000000,3.000000,-178.000000,2.340000,0.000000
19.258576,-27.000000,14.000000,16368.000000,-7.000000,10.000000,-161.000000,2.340000,0.000000
19.263320,-43.000000,6.000000,16383.000000,-45.000000,14.000000,-166.000000,2.340000,0.000000
19.278128,-38.000000,20.000000,16379.000000,1.000000,-11.000000,-172.000000,2.340000,0.000000
19.466162,-38.000000,27.000000,16378.000000,-3.000000,-9.000000,-192.000000,2.340000,0.000000
19.469224,-14.000000,23.000000,16377.000000,-18.000000,7.000000,-176.000000,2.340000,0.000000
19.470203,-8.000000,10.000000,16378.000000,-3.000000,4.000000,-164.000000,2.340000,0.000000
19.470991,-30.000000,9.000000,16364.000000,-15.000000,-15.000000,-189.000000,2.340000,0.000000
19.471811,-38.000000,4.000000,16380.000000,4.000000,3.000000,-159.000000,2.340000,0.000000
19.472550,-38.000000,6.000000,16376.000000,-4.000000,15.000000,-179.000000,2.340000,0.000000
19.473244,-19.000000,9.000000,16379.000000,8.000000,2.000000,-179.000000,2.340000,0.000000
19.474733,-33.000000,19.000000,16366.000000,-14.000000,5.000000,-196.000000,2.340000,0.000000
19.476406,-23.000000,31.000000,16372.000000,0.000000,4.000000,-154.000000,2.340000,0.000000
19.478866,-31.000000,14.000000,16376.000000,36.000000,-22.000000,-162.000000,2.340000,0.000000
19.493881,-29.000000,14.000000,16374.000000,-6.000000,6.000000,-159.000000,2.340000,0.000000
19.636341,-37.000000,9.000000,16383.000000,3.000000,19.000000,-171.000000,2.340000,0.000000
19.638527,-40.000000,3.000000,16377.000000,-12.000000,26.000000,-177.000000,2.340000,0.000000
19.639320,-26.000000,21.000000,16366.000000,-14.000000,11.000000,-161.000000,2.340000,0.000000
19.639997,-30.000000,13.000000,16367.000000,-12.000000,-4.000000,-185.000000,2.340000,0.000000
19.640629,-40.000000,13.000000,16372.000000,-21.000000,5.000000,-180.000000,2.340000,0.000000
19.641257,-31.000000,13.000000,16379.000000,-11.000000,2.000000,-173.000000,2.340000,0.000000
19.641990,-24.000000,20.000000,16379.000000,-21.000000,11.000000,-183.000000,2.340000,0.000000
19.648489,-39.000000,12.000000,16385.000000,3.000000,-16.000000,-173.000000,2.340000,0.000000
19.821071,-39.000000,17.000000,16384.000000,-11.000000,11.000000,-183.000000,2.340000,0.000000
19.832125,-39.000000,18.000000,16379.000000,4.000000,7.000000,-164.000000,2.340000,0.000000
19.836195,-36.000000,6.000000,16380.000000,-13.000000,-15.000000,-160.000000,2.340000,0.000000
19.839914,-17.000000,25.000000,16376.000000,0.000000,-6.000000,-163.000000,2.340000,0.000000
19.844874,-40.000000,10.000000,16378.000000,-18.000000,-13.000000,-184.000000,2.340000,0.000000
20.029029,-35.000000,8.000000,16374.000000,9.000000,-21.000000,-167.000000,2.340000,0.000000
20.031666,-30.000000,14.000000,16383.000000,-12.000000,7.000000,-164.000000,2.340000,0.000000
20.032582,-24.000000,21.000000,16369.000000,11.000000,-11.000000,-178.000000,2.340000,0.000000
20.033427,-22.000000,19.000000,16378.000000,-11.000000,-11.000000,-187.000000,2.340000,0.000000
20.034126,-52.000000,-1.000000,16366.000000,12.000000,0.000000,-173.000000,2.340000,0.000000
20.034751,-39.000000,-4.000000,16369.000000,5.000000,4.000000,-168.000000,2.340000,0.000000
20.035509,-14.000000,9.000000,16381.000000,7.000000,-14.000000,-174.000000,2.340000,0.000000
20.036836,-20.000000,13.000000,16376.000000,32.000000,-13.000000,-157.000000,2.340000,0.000000
20.037959,-40.000000,18.000000,16374.000000,-15.000000,-3.000000,-161.000000,2.340000,0.000000
20.038951,-39.000000,24.000000,16370.000000,-4.000000,-8.000000,-178.000000,2.340000,0.000000
20.039829,-37.000000,21.000000,16352.000000,-17.000000,-1.000000,-182.000000,2.340000,0.000000
20.040679,-7.000000,31.000000,16383.000000,3.000000,7.000000,-181.000000,2.340000,0.000000
20.041518,-20.000000,21.000000,16365.000000,-21.000000,5.000000,-176.000000,2.340000,0.000000
20.042456,-32.000000,4.000000,16375.000000,-10.000000,4.000000,-171.000000,2.340000,0.000000
20.053232,-36.000000,22.000000,16365.000000,-10.000000,15.000000,-165.000000,2.340000,0.000000
20.215410,-32.000000,18.000000,16364.000000,-15.000000,3.000000,-209.000000,2.340000,0.000000
20.218963,-33.000000,16.000000,16376.000000,3.000000,10.000000,-178.000000,2.340000,0.000000
20.220339,-26.000000,12.000000,16377.000000,-17.000000,-2.000000,-168.000000,2.340000,0.000000
20.222732,-28.000000,5.000000,16379.000000,-3.000000,-18.000000,-199.000000,2.340000,0.000000
20.224581,-21.000000,2.000000,16366.000000,-22.000000,11.000000,-185.000000,2.340000,0.000000
20.226233,-8.000000,29.000000,16368.000000,-16.000000,-12.000000,-186.000000,2.340000,0.000000
20.227833,-45.000000,30.000000,16368.000000,-27.000000,-7.000000,-161.000000,2.340000,0.000000
20.230741,-44.000000,9.000000,16360.000000,-4.000000,-15.000000,-165.000000,2.340000,0.000000
20.237801,-39.000000,24.000000,16373.000000,-8.000000,16.000000,-172.000000,2.340000,0.000000
20.252130,-21.000000,26.000000,16381.000000,6.000000,0.000000,-180.000000,2.340000,0.000000
20.392346,-21.000000,18.000000,16372.000000,2.000000,-6.000000,-159.000000,2.340000,0.000000
20.397824,-20.000000,16.000000,16381.000000,-2.000000,5.000000,-162.000000,2.340000,0.000000
20.399754,-23.000000,3.000000,16374.000000,-18.000000,10.000000,-176.000000,2.340000,0.000000
20.401709,-10.000000,6.000000,16372.000000,-6.000000,8.000000,-165.000000,2.340000,0.000000
20.403542,-26.000000,16.000000,16384.000000,-18.000000,-1.000000,-177.000000,2.340000,0.000000
20.405326,-40.000000,16.000000,16363.000000,33.000000,23.000000,-170.000000,2.340000,0.000000
20.406385,-52.000000,15.000000,16354.000000,-5.000000,6.000000,-176.000000,2.340000,0.000000
20.408061,-59.000000,12.000000,16374.000000,-18.000000,-16.000000,-170.000000,2.340000,0.000000
20.568244,-28.000000,14.000000,16372.000000,1.000000,0.000000,-177.000000,2.340000,0.000000
20.572698,-4.000000,18.000000,16366.000000,6.000000,-11.000000,-181.000000,2.340000,0.000000
20.574891,-35.000000,12.000000,16381.000000,17.000000,22.000000,-163.000000,2.340000,0.000000
20.576929,-40.000000,0.000000,16378.000000,-15.000000,-9.000000,-191.000000,2.340000,0.000000
20.579745,-43.000000,4.000000,16353.000000,-7.000000,16.000000,-178.000000,2.340000,0.000000
20.580755,-32.000000,2.000000,16366.000000,-8.000000,-10.000000,-160.000000,2.340000,0.000000
20.581618,-37.000000,-1.000000,16359.000000,-9.000000,3.000000,-160.000000,2.340000,0.000000
20.582450,-24.000000,19.000000,16376.000000,-7.000000,-7.000000,-185.000000,2.340000,0.000000
20.593343,-29.000000,22.000000,16364.000000,-20.000000,10.000000,-174.000000,2.340000,0.000000
20.737874,-46.000000,14.000000,16361.000000,-14.000000,0.000000,-186.000000,2.340000,0.000000
20.739644,-32.000000,7.000000,16378.000000,-20.000000,-14.000000,-163.000000,2.340000,0.000000
20.740373,-25.000000,8.000000,16376.000000,8.000000,-2.000000,-155.000000,2.340000,0.000000
20.742070,-36.000000,-2.000000,16351.000000,-15.000000,0.000000,-165.000000,2.340000,0.000000
20.743828,-22.000000,14.000000,16380.000000,6.000000,3.000000,-178.000000,2.340000,0.000000
20.746325,-28.000000,14.000000,16355.000000,-6.000000,-10.000000,-178.000000,2.340000,0.000000
20.747694,-25.000000,17.000000,16369.000000,-8.000000,-3.000000,-163.000000,2.340000,0.000000
20.750256,-33.000000,14.000000,16345.000000,-27.000000,-9.000000,-171.000000,2.340000,0.000000
20.907938,-29.000000,14.000000,16368.000000,-2.000000,-7.000000,-159.000000,2.340000,0.000000
20.911547,-16.000000,6.000000,16361.000000,-14.000000,4.000000,-184.000000,2.340000,0.000000
20.912539,-39.000000,16.000000,16372.000000,-15.000000,-7.000000,-175.000000,2.340000,0.000000
20.913304,-31.000000,-1.000000,16371.000000,3.000000,7.000000,-172.000000,2.340000,0.000000
20.914060,-43.000000,9.000000,16379.000000,-5.000000,-27.000000,-180.000000,2.340000,0.000000
20.914745,-40.000000,10.000000,16358.000000,-4.000000,-7.000000,-179.000000,2.340000,0.000000
20.915329,-19.000000,28.000000,16363.000000,1.000000,3.000000,-171.000000,2.340000,0.000000
20.921492,-13.000000,15.000000,16371.000000,-3.000000,0.000000,-168.000000,2.340000,0.000000
20.936446,-29.000000,21.000000,16356.000000,-15.000000,-13.000000,-156.000000,2.340000,0.000000
21.078360,-48.000000,30.000000,16365.000000,6.000000,16.000000,-178.000000,2.340000,0.000000
21.081617,-45.000000,14.000000,16348.000000,-7.000000,21.000000,-162.000000,2.340000,0.000000
21.082574,-24.000000,26.000000,16366.000000,-2.000000,10.000000,-200.000000,2.340000,0.000000
21.083470,-13.000000,17.000000,16347.000000,-36.000000,11.000000,-178.000000,2.340000,0.000000
21.084451,-14.000000,2.000000,16374.000000,-13.000000,-7.000000,-165.000000,2.340000,0.000000
21.085730,-15.000000,17.000000,16362.000000,-13.000000,13.000000,-168.000000,2.340000,0.000000
21.086867,-30.000000,-8.000000,16345.000000,-31.000000,-11.000000,-164.000000,2.340000,0.000000
21.092209,-48.000000,9.000000,16361.000000,3.000000,-9.000000,-171.000000,2.340000,0.000000
21.112708,-49.000000,12.000000,16351.000000,5.000000,8.000000,-176.000000,2.340000,0.000000
21.361151,-41.000000,1.000000,16348.000000,8.000000,13.000000,-151.000000,2.340000,0.000000
21.364278,-12.000000,12.000000,16370.000000,28.000000,9.000000,-171.000000,2.340000,0.000000
21.365154,-18.000000,8.000000,16368.000000,-9.000000,-5.000000,-171.000000,2.340000,0.000000
21.365874,-15.000000,20.000000,16342.000000,-4.000000,14.000000,-168.000000,2.340000,0.000000
21.366601,-21.000000,29.000000,16370.000000,1.000000,-11.000000,-164.000000,2.340000,0.000000
21.367369,-40.000000,9.000000,16362.000000,-2.000000,17.000000,-189.000000,2.340000,0.000000
21.368114,-40.000000,9.000000,16370.000000,-24.000000,-8.000000,-176.000000,2.340000,0.000000
21.368790,-32.000000,13.000000,16370.000000,7.000000,8.000000,-167.000000,2.340000,0.000000
21.369396,-32.000000,-12.000000,16377.000000,-10.000000,8.000000,-184.000000,2.340000,0.000000
21.370038,-55.000000,-19.000000,16354.000000,-1.000000,14.000000,-172.000000,2.340000,0.000000
21.370835,16.000000,59.000000,16374.000000,20.000000,-20.000000,-178.000000,2.340000,0.000000
21.371469,1.000000,24.000000,16378.000000,-22.000000,13.000000,-169.000000,2.340000,0.000000
21.373022,-57.000000,2.000000,16370.000000,-6.000000,32.000000,-160.000000,2.340000,0.000000
21.573912,-76.000000,-16.000000,16370.000000,12.000000,1.000000,-177.000000,2.340000,0.000000
21.577164,-63.000000,-32.000000,16377.000000,1.000000,16.000000,-167.000000,2.340000,0.000000
21.578715,-34.000000,-16.000000,16366.000000,-6.000000,-5.000000,-181.000000,2.340000,0.000000
21.579697,23.000000,31.000000,16397.000000,-1.000000,-5.000000,-182.000000,2.340000,0.000000
21.580514,-11.000000,48.000000,16371.000000,15.000000,7.000000,-168.000000,2.340000,0.000000
21.581316,-13.000000,67.000000,16364.000000,17.000000,-3.000000,-176.000000,2.340000,0.000000
21.582081,-19.000000,44.000000,16379.000000,-18.000000,4.000000,-184.000000,2.340000,0.000000
21.582769,-26.000000,17.000000,16361.000000,11.000000,9.000000,-196.000000,2.340000,0.000000
21.583502,-50.000000,-47.000000,16355.000000,-11.000000,-5.000000,-169.000000,2.340000,0.000000
21.584319,-56.000000,-36.000000,16347.000000,31.000000,-22.000000,-166.000000,2.340000,0.000000
21.591564,-43.000000,-8.000000,16378.000000,-5.000000,5.000000,-183.000000,2.410000,3.910000
21.607150,-19.000000,38.000000,16362.000000,-17.000000,3.000000,-178.000000,2.540000,6.140000
21.771375,-4.000000,68.000000,16378.000000,-5.000000,-9.000000,-188.000000,2.690000,7.750000
21.773754,-21.000000,60.000000,16372.000000,-11.000000,11.000000,-188.000000,2.870000,9.050000
21.775574,-47.000000,18.000000,16318.000000,-22.000000,11.000000,-160.000000,3.070000,9.890000
21.776672,-60.000000,-24.000000,16369.000000,-12.000000,24.000000,-164.000000,3.270000,9.890000
21.777593,-51.000000,-33.000000,16376.000000,4.000000,-5.000000,-161.000000,3.470000,10.200000
21.779467,-21.000000,-14.000000,16362.000000,-23.000000,-7.000000,-166.000000,3.680000,10.280000
21.780906,-13.000000,29.000000,16360.000000,-5.000000,-13.000000,-183.000000,3.880000,10.200000
21.782203,-23.000000,41.000000,16385.000000,19.000000,-26.000000,-151.000000,4.080000,9.890000
21.987285,-22.000000,43.000000,16382.000000,-21.000000,-4.000000,-180.000000,4.280000,9.740000
22.235675,-30.000000,15.000000,16380.000000,13.000000,15.000000,-185.000000,4.470000,9.510000
22.237958,-35.000000,4.000000,16383.000000,-16.000000,13.000000,-156.000000,4.660000,9.510000
22.238895,-40.000000,-12.000000,16378.000000,-9.000000,-4.000000,-182.000000,4.840000,9.280000
22.240039,-53.000000,-19.000000,16369.000000,-16.000000,5.000000,-162.000000,5.030000,9.200000
22.241204,-29.000000,1.000000,16372.000000,-12.000000,6.000000,-174.000000,5.210000,9.360000
22.242286,-20.000000,28.000000,16374.000000,-21.000000,-8.000000,-182.000000,5.400000,9.430000
22.243181,-3.000000,20.000000,16357.000000,-11.000000,11.000000,-187.000000,5.600000,9.740000
22.244703,-26.000000,22.000000,16369.000000,-19.000000,-27.000000,-189.000000,5.790000,9.890000
22.246061,-42.000000,7.000000,16371.000000,-1.000000,-11.000000,-175.000000,6.000000,10.120000
22.247327,-49.000000,0.000000,16357.000000,-14.000000,10.000000,-173.000000,6.200000,9.970000
22.248143,-47.000000,-9.000000,16367.000000,-12.000000,14.000000,-150.000000,6.370000,8.900000
22.248908,-31.000000,23.000000,16373.000000,-10.000000,15.000000,-173.000000,6.570000,10.050000
22.249641,-24.000000,17.000000,16366.000000,-14.000000,0.000000,-176.000000,6.770000,9.970000
22.250304,-11.000000,6.000000,16381.000000,-4.000000,-3.000000,-166.000000,6.990000,10.810000
22.250946,-23.000000,12.000000,16373.000000,2.000000,-5.000000,-167.000000,7.180000,9.590000
22.251738,-27.000000,5.000000,16386.000000,21.000000,-24.000000,-168.000000,7.370000,9.510000
22.252700,-36.000000,3.000000,16369.000000,-11.000000,-15.000000,-171.000000,7.550000,9.050000
22.256722,-32.000000,18.000000,16377.000000,-3.000000,-9.000000,-179.000000,7.740000,9.130000
22.258120,-23.000000,2.000000,16378.000000,-12.000000,25.000000,-181.000000,7.920000,9.050000
22.400321,-24.000000,13.000000,16382.000000,-14.000000,-2.000000,-173.000000,8.100000,9.360000
22.402485,-25.000000,18.000000,16385.000000,-3.000000,-3.000000,-147.000000,8.290000,9.200000
22.403561,-33.000000,8.000000,16384.000000,9.000000,-9.000000,-184.000000,8.480000,9.590000
22.405504,-37.000000,10.000000,16374.000000,-4.000000,4.000000,-178.000000,8.670000,9.660000
22.406739,-34.000000,16.000000,16372.000000,-25.000000,-8.000000,-167.000000,8.870000,9.820000
22.407561,-29.000000,15.000000,16367.000000,7.000000,-5.000000,-175.000000,9.080000,10.350000
22.409343,-27.000000,31.000000,16387.000000,-1.000000,-12.000000,-177.000000,9.290000,10.810000
22.411690,-30.000000,20.000000,16368.000000,-35.000000,12.000000,-190.000000,9.510000,10.740000
22.413669,-16.000000,8.000000,16389.000000,20.000000,-21.000000,-192.000000,9.730000,10.970000
22.414808,-26.000000,-1.000000,16372.000000,-11.000000,3.000000,-176.000000,9.940000,10.580000
22.415726,-23.000000,10.000000,16389.000000,-18.000000,20.000000,-167.000000,10.140000,10.200000
22.417874,-44.000000,46.000000,16382.000000,-13.000000,10.000000,-206.000000,10.340000,9.820000
22.433329,-34.000000,18.000000,16386.000000,-9.000000,-12.000000,-181.000000,10.530000,9.660000
22.607332,-36.000000,25.000000,16374.000000,-7.000000,-17.000000,-191.000000,10.720000,9.590000
22.612859,-35.000000,12.000000,16370.000000,-14.000000,-2.000000,-178.000000,10.910000,9.430000
22.615761,-27.000000,1.000000,16354.000000,-4.000000,0.000000,-188.000000,11.100000,9.280000
22.618648,-33.000000,-6.000000,16367.000000,-21.000000,-3.000000,-192.000000,11.280000,9.280000
22.621612,-23.000000,13.000000,16370.000000,-6.000000,-5.000000,-180.000000,11.470000,9.510000
22.623525,-32.000000,26.000000,16376.000000,2.000000,-3.000000,-165.000000,11.670000,9.740000
22.625553,-21.000000,31.000000,16384.000000,-13.000000,-4.000000,-185.000000,11.870000,10.050000
22.626888,-38.000000,22.000000,16381.000000,8.000000,-15.000000,-190.000000,12.070000,9.820000
22.628284,-35.000000,12.000000,16373.000000,-2.000000,-16.000000,-171.000000,12.260000,9.820000
22.636251,-30.000000,5.000000,16384.000000,-14.000000,2.000000,-185.000000,12.460000,9.970000
22.815041,-30.000000,-7.000000,16375.000000,-34.000000,-4.000000,-182.000000,12.670000,10.200000
22.820302,-27.000000,16.000000,16366.000000,-4.000000,14.000000,-181.000000,12.870000,10.120000
22.821522,-48.000000,17.000000,16387.000000,-11.000000,-5.000000,-178.000000,13.070000,10.120000
22.824207,-29.000000,32.000000,16383.000000,-12.000000,4.000000,-153.000000,13.270000,10.050000
22.826580,-22.000000,19.000000,16379.000000,11.000000,6.000000,-174.000000,13.470000,9.820000
22.829135,-25.000000,10.000000,16378.000000,21.000000,-21.000000,-151.000000,13.660000,9.590000
22.831713,-21.000000,13.000000,16376.000000,-3.000000,-9.000000,-171.000000,13.840000,9.050000
22.832614,-36.000000,-11.000000,16369.000000,-15.000000,17.000000,-176.000000,14.020000,8.970000
22.833341,-39.000000,12.000000,16381.000000,0.000000,-4.000000,-170.000000,14.200000,8.820000
22.837657,-32.000000,10.000000,16376.000000,-13.000000,-6.000000,-168.000000,14.380000,9.050000
22.975432,-33.000000,35.000000,16380.000000,-3.000000,4.000000,-183.000000,14.560000,9.130000
22.978058,-19.000000,17.000000,16369.000000,-11.000000,3.000000,-146.000000,14.750000,9.590000
22.980344,-21.000000,15.000000,16364.000000,24.000000,-5.000000,-179.000000,14.950000,9.740000
22.981220,-24.000000,2.000000,16367.000000,-13.000000,-2.000000,-191.000000,15.150000,10.200000
22.982443,-33.000000,0.000000,16366.000000,-21.000000,-1.000000,-174.000000,15.360000,10.350000
22.983639,-20.000000,12.000000,16354.000000,32.000000,-14.000000,-166.000000,15.580000,10.970000
22.985322,-42.000000,18.000000,16361.000000,22.000000,-7.000000,-174.000000,15.790000,10.810000
22.992707,-39.000000,28.000000,16371.000000,20.000000,-10.000000,-172.000000,16.010000,11.040000
23.008500,-28.000000,15.000000,16344.000000,9.000000,13.000000,-152.000000,16.230000,10.740000
23.145064,-21.000000,15.000000,16371.000000,-13.000000,-2.000000,-194.000000,16.440000,10.510000
23.150823,-32.000000,4.000000,16357.000000,-25.000000,3.000000,-185.000000,16.640000,9.970000
23.153705,-43.000000,7.000000,16362.000000,-2.000000,-21.000000,-192.000000,16.830000,9.740000
23.156453,-30.000000,18.000000,16358.000000,-7.000000,10.000000,-172.000000,17.020000,9.430000
23.158512,-35.000000,19.000000,16361.000000,-2.000000,6.000000,-171.000000,17.210000,9.200000
23.159574,-34.000000,26.000000,16359.000000,-10.000000,1.000000,-176.000000,17.390000,8.970000
23.160383,-32.000000,4.000000,16377.000000,-29.000000,6.000000,-185.000000,17.570000,9.050000
23.360323,-20.000000,18.000000,16347.000000,19.000000,-2.000000,-189.000000,17.760000,9.430000
23.366065,-36.000000,12.000000,16374.000000,-5.000000,3.000000,-167.000000,17.950000,9.660000
23.368832,-41.000000,6.000000,16384.000000,2.000000,0.000000,-175.000000,18.150000,10.120000
23.370900,-38.000000,-2.000000,16375.000000,1.000000,6.000000,-162.000000,18.350000,9.820000
23.371933,-23.000000,14.000000,16365.000000,-19.000000,-5.000000,-182.000000,18.550000,10.120000
23.372714,-35.000000,31.000000,16363.000000,-9.000000,5.000000,-186.000000,18.750000,10.050000
23.373473,-37.000000,15.000000,16350.000000,3.000000,13.000000,-177.000000,18.960000,10.280000
23.375680,-38.000000,1.000000,16377.000000,-20.000000,12.000000,-192.000000,19.160000,10.200000
23.378341,-29.000000,-1.000000,16359.000000,-21.000000,3.000000,-191.000000,19.370000,10.280000
23.380895,-25.000000,9.000000,16368.000000,13.000000,16.000000,-177.000000,19.570000,10.050000
23.383376,-19.000000,26.000000,16344.000000,2.000000,-10.000000,-167.000000,19.760000,9.820000
23.573293,-16.000000,25.000000,16370.000000,-19.000000,0.000000,-178.000000,19.950000,9.510000
23.578489,-41.000000,14.000000,16355.000000,7.000000,-15.000000,-180.000000,20.140000,9.130000
23.580902,-46.000000,20.000000,16358.000000,11.000000,40.000000,-185.000000,20.320000,9.130000
23.582212,-27.000000,18.000000,16347.000000,-8.000000,-3.000000,-179.000000,20.500000,8.970000
23.583462,-28.000000,14.000000,16369.000000,11.000000,0.000000,-166.000000,20.680000,9.050000
23.586329,-23.000000,0.000000,16373.000000,-14.000000,5.000000,-185.000000,20.860000,9.130000
23.588863,-30.000000,19.000000,16357.000000,-22.000000,-2.000000,-179.000000,21.050000,9.590000
23.591083,-27.000000,13.000000,16361.000000,-4.000000,-33.000000,-170.000000,21.250000,9.740000
23.592119,-31.000000,7.000000,16358.000000,-15.000000,32.000000,-158.000000,21.450000,10.200000
23.593010,-22.000000,16.000000,16349.000000,-14.000000,16.000000,-170.000000,21.660000,10.350000
23.598343,-36.000000,21.000000,16356.000000,-1.000000,-23.000000,-182.000000,21.880000,11.120000
23.754422,-38.000000,4.000000,16348.000000,14.000000,-28.000000,-171.000000,22.100000,10.810000
23.756295,-32.000000,13.000000,16358.000000,-1.000000,21.000000,-159.000000,22.320000,11.040000
23.757065,-26.000000,11.000000,16340.000000,6.000000,-7.000000,-172.000000,22.530000,10.660000
23.757690,-34.000000,5.000000,16356.000000,-5.000000,12.000000,-177.000000,22.740000,10.430000
23.758364,-20.000000,10.000000,16345.000000,-29.000000,-13.000000,-191.000000,22.940000,9.740000
23.758981,-36.000000,4.000000,16365.000000,-32.000000,2.000000,-188.000000,23.130000,9.590000
23.759549,-18.000000,11.000000,16349.000000,29.000000,-1.000000,-172.000000,23.310000,9.050000
23.760225,-25.000000,15.000000,16374.000000,17.000000,-9.000000,-175.000000,23.490000,9.200000
23.768337,-25.000000,8.000000,16363.000000,-4.000000,-11.000000,-177.000000,23.670000,9.050000
23.924365,-38.000000,11.000000,16371.000000,2.000000,3.000000,-173.000000,23.850000,9.050000
23.927050,-34.000000,10.000000,16355.000000,2.000000,3.000000,-162.000000,24.040000,9.430000
23.928089,-27.000000,29.000000,16354.000000,-9.000000,-6.000000,-173.000000,24.240000,9.660000
23.929126,-31.000000,20.000000,16359.000000,-2.000000,-17.000000,-190.000000,24.440000,9.970000
23.930078,-27.000000,3.000000,16336.000000,-8.000000,7.000000,-175.000000,24.630000,9.820000
23.930877,-31.000000,-4.000000,16339.000000,-2.000000,-7.000000,-177.000000,24.830000,10.050000
23.931564,-37.000000,22.000000,16369.000000,-16.000000,10.000000,-166.000000,25.030000,10.050000
23.938659,-32.000000,18.000000,16362.000000,8.000000,14.000000,-175.000000,25.240000,10.280000
23.954008,-32.000000,8.000000,16352.000000,-27.000000,-13.000000,-183.000000,25.440000,10.200000
24.095668,-27.000000,21.000000,16349.000000,11.000000,-26.000000,-173.000000,25.650000,10.120000
24.098382,-32.000000,13.000000,16358.000000,-13.000000,-18.000000,-181.000000,25.850000,10.050000
24.099194,-36.000000,20.000000,16351.000000,2.000000,-21.000000,-149.000000,26.040000,9.660000
24.099870,-21.000000,16.000000,16351.000000,-31.000000,5.000000,-187.000000,26.230000,9.510000
24.101873,-53.000000,-2.000000,16365.000000,-11.000000,27.000000,-184.000000,26.410000,8.900000
24.103175,-36.000000,0.000000,16370.000000,-17.000000,-6.000000,-183.000000,26.590000,8.970000
24.104672,-25.000000,28.000000,16359.000000,4.000000,-4.000000,-151.000000,26.770000,8.970000
24.111406,-26.000000,13.000000,16371.000000,-7.000000,1.000000,-194.000000,26.950000,9.130000
24.271651,-31.000000,11.000000,16363.000000,17.000000,0.000000,-168.000000,27.130000,9.130000
24.273835,-33.000000,5.000000,16364.000000,-32.000000,-7.000000,-168.000000,27.320000,9.590000
24.274637,-22.000000,15.000000,16369.000000,-19.000000,14.000000,-194.000000,27.520000,9.590000
24.275356,-29.000000,0.000000,16376.000000,-26.000000,24.000000,-159.000000,27.720000,10.200000
24.276069,-39.000000,15.000000,16374.000000,0.000000,-13.000000,-174.000000,27.930000,10.510000
24.276661,-23.000000,16.000000,16344.000000,4.000000,-27.000000,-173.000000,28.150000,11.040000
24.277367,-23.000000,18.000000,16346.000000,-2.000000,-9.000000,-159.000000,28.370000,11.040000
24.279064,-23.000000,14.000000,16363.000000,23.000000,-14.000000,-175.000000,28.590000,11.120000
24.297566,-20.000000,7.000000,16361.000000,-29.000000,7.000000,-166.000000,28.810000,10.740000
24.452511,-28.000000,6.000000,16362.000000,-9.000000,3.000000,-174.000000,29.020000,10.280000
24.456917,-35.000000,6.000000,16367.000000,-26.000000,2.000000,-158.000000,29.210000,9.740000
24.459200,-39.000000,11.000000,16380.000000,-16.000000,-8.000000,-175.000000,29.400000,9.510000
24.461477,-29.000000,14.000000,16364.000000,-2.000000,-27.000000,-180.000000,29.580000,9.200000
24.464287,-24.000000,13.000000,16352.000000,-10.000000,7.000000,-176.000000,29.770000,9.050000
24.466456,-25.000000,21.000000,16362.000000,-17.000000,30.000000,-189.000000,29.950000,9.130000
24.468513,-44.000000,0.000000,16360.000000,-8.000000,-2.000000,-179.000000,30.130000,9.130000
24.470690,-45.000000,16.000000,16338.000000,13.000000,-5.000000,-191.000000,30.320000,9.590000
24.471676,-37.000000,13.000000,16373.000000,-22.000000,13.000000,-171.000000,30.510000,9.590000
24.615803,-32.000000,14.000000,16362.000000,-34.000000,14.000000,-174.000000,30.710000,9.890000
24.620299,-29.000000,15.000000,16362.000000,3.000000,9.000000,-166.000000,30.910000,9.820000
24.622535,-32.000000,16.000000,16349.000000,14.000000,-16.000000,-164.000000,31.110000,10.050000
24.624694,-38.000000,9.000000,16347.000000,10.000000,-23.000000,-174.000000,31.310000,10.200000
24.627207,-38.000000,19.000000,16361.000000,2.000000,-13.000000,-179.000000,31.520000,10.280000
24.628934,-37.000000,-1.000000,16361.000000,21.000000,-2.000000,-172.000000,31.720000,10.120000
24.631569,-21.000000,18.000000,16359.000000,-4.000000,5.000000,-170.000000,31.930000,10.200000
24.641716,-30.000000,6.000000,16349.000000,0.000000,-5.000000,-173.000000,32.130000,10.050000
24.779719,-20.000000,16.000000,16372.000000,-28.000000,16.000000,-185.000000,32.320000,9.590000
24.783160,-33.000000,-10.000000,16342.000000,0.000000,13.000000,-160.000000,32.510000,9.430000
24.784868,-37.000000,14.000000,16347.000000,-10.000000,17.000000,-196.000000,32.690000,9.050000
24.787175,-30.000000,6.000000,16367.000000,-14.000000,18.000000,-171.000000,32.870000,9.050000
24.789270,-34.000000,1.000000,16363.000000,-2.000000,-5.000000,-192.000000,33.050000,9.050000
24.790086,-34.000000,20.000000,16345.000000,-20.000000,8.000000,-175.000000,33.230000,9.130000
24.790855,-20.000000,4.000000,16372.000000,6.000000,6.000000,-169.000000,33.410000,9.050000
24.797434,-21.000000,8.000000,16365.000000,8.000000,12.000000,-157.000000,33.610000,9.820000
24.813655,-28.000000,16.000000,16352.000000,-13.000000,23.000000,-189.000000,33.800000,9.740000
24.949467,-27.000000,3.000000,16346.000000,-20.000000,7.000000,-149.000000,34.010000,10.430000
24.951787,-23.000000,10.000000,16373.000000,-19.000000,9.000000,-174.000000,34.220000,10.510000
24.954281,-34.000000,9.000000,16343.000000,-15.000000,-2.000000,-175.000000,34.440000,11.040000
24.955227,-19.000000,26.000000,16371.000000,-18.000000,5.000000,-161.000000,34.660000,10.810000
24.956026,-35.000000,-5.000000,16345.000000,-3.000000,10.000000,-164.000000,34.880000,11.040000
24.956780,-25.000000,3.000000,16362.000000,-3.000000,-13.000000,-190.000000,35.090000,10.430000
24.958586,-34.000000,7.000000,16356.000000,-10.000000,0.000000,-162.000000,35.290000,10.120000
24.968086,-28.000000,17.000000,16354.000000,7.000000,2.000000,-172.000000,35.490000,9.740000
25.117212,-31.000000,3.000000,16354.000000,-26.000000,-16.000000,-180.000000,35.670000,9.360000
25.121994,-31.000000,10.000000,16369.000000,8.000000,-4.000000,-194.000000,35.860000,9.130000
25.123836,-27.000000,16.000000,16362.000000,-20.000000,17.000000,-178.000000,36.040000,9.050000
25.126549,-20.000000,18.000000,16365.000000,-17.000000,11.000000,-176.000000,36.220000,9.130000
25.129823,-19.000000,20.000000,16361.000000,-24.000000,-21.000000,-171.000000,36.400000,9.050000
25.132360,-36.000000,5.000000,16364.000000,-11.000000,-2.000000,-186.000000,36.590000,9.590000
25.134828,-13.000000,5.000000,16352.000000,-16.000000,4.000000,-177.000000,36.790000,9.820000
25.139064,-25.000000,22.000000,16379.000000,-20.000000,-22.000000,-174.000000,36.990000,10.120000
25.302891,-35.000000,9.000000,16345.000000,-1.000000,4.000000,-170.000000,37.190000,9.820000
25.312604,-37.000000,6.000000,16349.000000,-6.000000,5.000000,-169.000000,37.390000,10.120000
25.316422,-36.000000,-2.000000,16365.000000,-26.000000,-10.000000,-188.000000,37.590000,10.120000
25.319424,-19.000000,16.000000,16379.000000,-8.000000,1.000000,-173.000000,37.800000,10.200000
25.322306,-32.000000,7.000000,16343.000000,7.000000,-10.000000,-169.000000,38.000000,10.120000
25.325517,-29.000000,18.000000,16368.000000,8.000000,-7.000000,-177.000000,38.200000,10.050000
25.568166,-24.000000,7.000000,16353.000000,17.000000,-10.000000,-164.000000,38.400000,9.890000
25.569893,-24.000000,6.000000,16359.000000,-14.000000,-7.000000,-190.000000,38.590000,9.740000
25.570705,-35.000000,20.000000,16359.000000,-9.000000,28.000000,-176.000000,38.780000,9.430000
25.571346,-31.000000,9.000000,16357.000000,-12.000000,3.000000,-174.000000,38.960000,8.970000
25.572006,-24.000000,23.000000,16345.000000,5.000000,-1.000000,-158.000000,39.140000,9.050000
25.572562,-20.000000,23.000000,16377.000000,-28.000000,20.000000,-174.000000,39.320000,9.050000
25.573470,-26.000000,24.000000,16344.000000,-18.000000,-5.000000,-170.000000,39.510000,9.130000
25.574273,-31.000000,16.000000,16362.000000,-11.000000,14.000000,-177.000000,39.690000,9.280000
25.574980,-21.000000,16.000000,16357.000000,3.000000,-1.000000,-160.000000,39.890000,9.660000
25.575626,-17.000000,8.000000,16372.000000,-22.000000,-2.000000,-181.000000,40.080000,9.740000
25.576228,-19.000000,13.000000,16347.000000,10.000000,0.000000,-165.000000,40.280000,10.200000
25.576892,-36.000000,13.000000,16365.000000,-8.000000,13.000000,-177.000000,40.490000,10.430000
25.577480,-13.000000,-2.000000,16364.000000,-17.000000,10.000000,-187.000000,40.710000,11.040000
25.578218,-35.000000,10.000000,16372.000000,14.000000,4.000000,-172.000000,40.930000,10.740000
25.578956,-24.000000,7.000000,16370.000000,-11.000000,6.000000,-168.000000,41.150000,11.040000
25.579715,-26.000000,-2.000000,16355.000000,4.000000,-14.000000,-181.000000,41.360000,10.430000
25.590014,-25.000000,0.000000,16359.000000,-5.000000,-2.000000,-176.000000,41.560000,10.200000
25.788531,-31.000000,-6.000000,16375.000000,-4.000000,13.000000,-185.000000,41.760000,9.740000
25.790596,-21.000000,10.000000,16371.000000,-10.000000,-7.000000,-177.000000,41.950000,9.430000
25.792033,-32.000000,8.000000,16362.000000,-21.000000,-5.000000,-170.000000,42.130000,9.430000
25.792921,-31.000000,-3.000000,16374.000000,-8.000000,-9.000000,-183.000000,42.320000,9.130000
25.793715,-39.000000,4.000000,16365.000000,-2.000000,8.000000,-189.000000,42.500000,9.130000
25.794449,-43.000000,12.000000,16372.000000,7.000000,7.000000,-183.000000,42.680000,9.200000
25.795233,-29.000000,7.000000,16348.000000,-10.000000,0.000000,-186.000000,42.880000,9.660000
25.795884,-26.000000,2.000000,16363.000000,-22.000000,4.000000,-172.000000,43.070000,9.740000
25.796610,-34.000000,21.000000,16370.000000,-1.000000,0.000000,-193.000000,43.270000,10.050000
25.797395,-27.000000,-3.000000,16356.000000,-13.000000,-8.000000,-163.000000,43.470000,10.120000
25.806452,-23.000000,14.000000,16364.000000,-8.000000,9.000000,-159.000000,43.680000,10.280000
26.028824,-26.000000,19.000000,16372.000000,-21.000000,6.000000,-179.000000,43.880000,10.050000
26.032326,-36.000000,12.000000,16369.000000,-12.000000,2.000000,-176.000000,44.080000,10.120000
26.034077,-21.000000,0.000000,16373.000000,-9.000000,12.000000,-179.000000,44.290000,10.120000
26.035227,-38.000000,17.000000,16381.000000,-3.000000,-19.000000,-160.000000,44.490000,10.200000
26.036295,-32.000000,10.000000,16370.000000,34.000000,-7.000000,-155.000000,44.690000,9.890000
26.037202,-22.000000,18.000000,16372.000000,-3.000000,-7.000000,-177.000000,44.880000,9.740000
26.039379,-19.000000,15.000000,16374.000000,-6.000000,12.000000,-155.000000,45.070000,9.590000
26.040788,-11.000000,-6.000000,16367.000000,4.000000,23.000000,-186.000000,45.260000,9.130000
26.042961,-36.000000,19.000000,16372.000000,23.000000,-2.000000,-167.000000,45.440000,9.130000
26.045689,-24.000000,16.000000,16392.000000,-4.000000,1.000000,-179.000000,45.620000,8.970000
26.047290,-35.000000,14.000000,16359.000000,-4.000000,0.000000,-179.000000,45.800000,9.130000
26.223203,-28.000000,10.000000,16375.000000,-14.000000,-5.000000,-171.000000,45.990000,9.200000
26.226953,-31.000000,15.000000,16376.000000,21.000000,14.000000,-191.000000,46.180000,9.590000
26.228058,-19.000000,2.000000,16371.000000,24.000000,-3.000000,-189.000000,46.370000,9.740000
26.229218,-37.000000,14.000000,16369.000000,-15.000000,5.000000,-185.000000,46.580000,10.200000
26.230299,-35.000000,-2.000000,16379.000000,-1.000000,-18.000000,-167.000000,46.780000,10.350000
26.231329,-33.000000,18.000000,16378.000000,-4.000000,10.000000,-179.000000,47.000000,10.970000
26.232373,-32.000000,4.000000,16379.000000,1.000000,-8.000000,-182.000000,47.220000,10.740000
26.233341,-22.000000,8.000000,16370.000000,-13.000000,-10.000000,-157.000000,47.440000,10.890000
26.234244,-49.000000,16.000000,16378.000000,-2.000000,-5.000000,-175.000000,47.640000,10.430000
26.240198,-33.000000,8.000000,16376.000000,-6.000000,-16.000000,-179.000000,47.850000,10.120000
26.384097,-39.000000,17.000000,16373.000000,-22.000000,2.000000,-200.000000,48.040000,9.820000
26.387693,-21.000000,14.000000,16373.000000,-9.000000,-4.000000,-166.000000,48.230000,9.590000
26.388496,-39.000000,6.000000,16384.000000,-23.000000,6.000000,-162.000000,48.420000,9.360000
26.389209,-31.000000,6.000000,16373.000000,-8.000000,2.000000,-192.000000,48.610000,9.280000
26.389939,-31.000000,11.000000,16387.000000,-1.000000,-14.000000,-185.000000,48.790000,9.200000
26.390567,-39.000000,23.000000,16370.000000,32.000000,4.000000,-177.000000,48.980000,9.280000
26.391206,-36.000000,7.000000,16378.000000,24.000000,-17.000000,-163.000000,49.170000,9.660000
26.395784,-16.000000,14.000000,16370.000000,22.000000,4.000000,-187.000000,49.360000,9.660000
26.413287,-25.000000,19.000000,16378.000000,18.000000,-18.000000,-167.000000,49.560000,9.820000
26.565616,-30.000000,17.000000,16371.000000,-14.000000,-2.000000,-166.000000,49.760000,9.890000
26.570007,-35.000000,13.000000,16381.000000,23.000000,-17.000000,-157.000000,49.960000,10.050000
26.570978,-25.000000,22.000000,16379.000000,28.000000,-11.000000,-163.000000,50.160000,10.050000
26.571815,-42.000000,5.000000,16385.000000,-24.000000,-10.000000,-176.000000,50.360000,10.200000
26.572467,-20.000000,16.000000,16381.000000,-27.000000,14.000000,-169.000000,50.570000,10.120000
26.573110,-23.000000,16.000000,16387.000000,0.000000,3.000000,-152.000000,50.760000,9.890000
26.573781,-29.000000,2.000000,16374.000000,4.000000,-9.000000,-189.000000,50.960000,9.890000
26.574465,-35.000000,12.000000,16382.000000,6.000000,-6.000000,-176.000000,51.160000,9.740000
26.725308,-42.000000,19.000000,16388.000000,-2.000000,-19.000000,-170.000000,51.350000,9.510000
26.728039,-37.000000,7.000000,16379.000000,1.000000,-6.000000,-161.000000,51.530000,9.050000
26.729063,-31.000000,13.000000,16384.000000,-11.000000,2.000000,-170.000000,51.710000,9.200000
26.730072,-44.000000,6.000000,16377.000000,17.000000,-2.000000,-155.000000,51.890000,9.130000
26.730821,-23.000000,16.000000,16376.000000,-13.000000,14.000000,-167.000000,52.080000,9.130000
26.731482,-26.000000,15.000000,16377.000000,-7.000000,4.000000,-169.000000,52.260000,9.130000
26.732129,-20.000000,17.000000,16386.000000,-15.000000,7.000000,-170.000000,52.450000,9.430000
26.741304,-28.000000,2.000000,16381.000000,-7.000000,-12.000000,-159.000000,52.640000,9.510000
26.757644,-37.000000,0.000000,16359.000000,-24.000000,7.000000,-179.000000,52.840000,10.120000
26.925389,-28.000000,21.000000,16389.000000,-7.000000,7.000000,-193.000000,53.050000,10.430000
26.929506,-29.000000,16.000000,16393.000000,-12.000000,-20.000000,-177.000000,53.270000,10.810000
26.931358,-23.000000,13.000000,16386.000000,-22.000000,-20.000000,-186.000000,53.480000,10.810000
26.933154,-29.000000,4.000000,16386.000000,-27.000000,-29.000000,-185.000000,53.700000,10.890000
26.934776,-44.000000,9.000000,16380.000000,2.000000,3.000000,-172.000000,53.910000,10.740000
26.935865,-51.000000,16.000000,16385.000000,-11.000000,5.000000,-190.000000,54.120000,10.200000
26.936659,-37.000000,2.000000,16375.000000,30.000000,-5.000000,-175.000000,54.320000,9.820000
26.937324,-27.000000,-4.000000,16363.000000,0.000000,10.000000,-178.000000,54.510000,9.660000
26.938191,-28.000000,8.000000,16370.000000,4.000000,1.000000,-163.000000,54.700000,9.510000
27.093237,-25.000000,20.000000,16368.000000,-2.000000,1.000000,-163.000000,54.880000,9.280000
27.099224,-27.000000,9.000000,16383.000000,-30.000000,3.000000,-176.000000,55.070000,9.050000
27.101123,-40.000000,11.000000,16390.000000,-6.000000,17.000000,-183.000000,55.250000,9.130000
27.102417,-53.000000,9.000000,16376.000000,-18.000000,4.000000,-174.000000,55.440000,9.510000
27.103389,-37.000000,14.000000,16384.000000,-4.000000,1.000000,-177.000000,55.630000,9.510000
27.104118,-32.000000,3.000000,16378.000000,-3.000000,0.000000,-160.000000,55.830000,9.890000
27.104889,-30.000000,3.000000,16384.000000,-23.000000,10.000000,-163.000000,56.030000,9.970000
27.105783,-23.000000,-3.000000,16354.000000,6.000000,-13.000000,-174.000000,56.230000,10.050000
27.114089,-18.000000,19.000000,16388.000000,1.000000,-32.000000,-189.000000,56.430000,9.970000
27.292731,-27.000000,7.000000,16372.000000,8.000000,-5.000000,-182.000000,56.630000,10.120000
27.294428,-49.000000,8.000000,16372.000000,-11.000000,4.000000,-174.000000,56.830000,10.200000
27.295131,-26.000000,6.000000,16379.000000,-17.000000,20.000000,-181.000000,57.040000,10.200000
27.296038,-38.000000,10.000000,16378.000000,-2.000000,-9.000000,-168.000000,57.240000,10.200000
27.296783,-20.000000,11.000000,16364.000000,-3.000000,4.000000,-156.000000,57.440000,9.740000
27.297356,-26.000000,13.000000,16386.000000,-16.000000,-25.000000,-173.000000,57.630000,9.590000
27.297977,-26.000000,3.000000,16372.000000,0.000000,18.000000,-181.000000,57.810000,9.130000
27.298576,-31.000000,20.000000,16378.000000,-23.000000,9.000000,-163.000000,57.990000,9.050000
27.299919,-32.000000,7.000000,16381.000000,17.000000,10.000000,-176.000000,58.170000,8.900000
27.315712,-29.000000,8.000000,16376.000000,-8.000000,-12.000000,-171.000000,58.350000,8.970000
27.331057,-29.000000,3.000000,16372.000000,17.000000,4.000000,-195.000000,58.530000,9.050000
27.465549,-44.000000,16.000000,16390.000000,-9.000000,17.000000,-176.000000,58.720000,9.590000
27.468210,-33.000000,-6.000000,16365.000000,-8.000000,-16.000000,-165.000000,58.910000,9.590000
27.469005,-23.000000,12.000000,16387.000000,-1.000000,7.000000,-177.000000,59.120000,10.200000
27.469935,-28.000000,13.000000,16374.000000,-13.000000,-28.000000,-173.000000,59.320000,10.280000
27.470990,-35.000000,9.000000,16384.000000,-2.000000,2.000000,-179.000000,59.540000,10.970000
27.472987,-28.000000,6.000000,16370.000000,21.000000,14.000000,-164.000000,59.760000,10.810000
27.475184,-42.000000,2.000000,16386.000000,-1.000000,14.000000,-187.000000,59.980000,11.120000
27.487242,-22.000000,18.000000,16371.000000,5.000000,8.000000,-174.000000,60.190000,10.660000
27.645374,-37.000000,16.000000,16367.000000,12.000000,9.000000,-163.000000,60.400000,10.280000
27.650901,-40.000000,13.000000,16372.000000,1.000000,-1.000000,-175.000000,60.600000,10.050000
27.651929,-18.000000,3.000000,16377.000000,3.000000,23.000000,-166.000000,60.790000,9.510000
27.652822,-27.000000,8.000000,16387.000000,12.000000,-3.000000,-174.000000,60.980000,9.510000
27.653557,-33.000000,16.000000,16387.000000,13.000000,13.000000,-166.000000,61.170000,9.280000
27.655901,-34.000000,18.000000,16375.000000,10.000000,-3.000000,-186.000000,61.350000,9.130000
27.658968,-33.000000,9.000000,16376.000000,-20.000000,-14.000000,-190.000000,61.530000,9.130000
27.660641,-35.000000,14.000000,16379.000000,18.000000,-1.000000,-184.000000,61.720000,9.510000
27.816006,-17.000000,10.000000,16383.000000,4.000000,6.000000,-188.000000,61.910000,9.430000
27.820675,-20.000000,3.000000,16370.000000,-8.000000,1.000000,-176.000000,62.110000,9.890000
27.821740,-28.000000,14.000000,16377.000000,-5.000000,9.000000,-186.000000,62.300000,9.740000
27.822640,-41.000000,7.000000,16394.000000,13.000000,-21.000000,-173.000000,62.500000,9.970000
27.823313,-43.000000,8.000000,16375.000000,-18.000000,15.000000,-161.000000,62.700000,9.970000
27.824329,-27.000000,21.000000,16385.000000,-9.000000,8.000000,-165.000000,62.910000,10.200000
27.825444,-31.000000,8.000000,16379.000000,-16.000000,-13.000000,-192.000000,63.110000,10.200000
27.826568,-25.000000,10.000000,16380.000000,-31.000000,-11.000000,-189.000000,63.310000,10.050000
27.827739,-22.000000,23.000000,16384.000000,-26.000000,-8.000000,-180.000000,63.510000,10.050000
27.986517,-22.000000,6.000000,16365.000000,-14.000000,-5.000000,-185.000000,63.710000,9.820000
27.990582,-35.000000,13.000000,16381.000000,-3.000000,7.000000,-173.000000,63.900000,9.590000
27.991390,-26.000000,17.000000,16368.000000,-6.000000,13.000000,-168.000000,64.080000,9.050000
27.992177,-38.000000,19.000000,16373.000000,3.000000,8.000000,-167.000000,64.260000,8.900000
27.993287,-25.000000,14.000000,16388.000000,-12.000000,4.000000,-178.000000,64.440000,9.130000
27.996207,-23.000000,11.000000,16375.000000,-28.000000,-4.000000,-162.000000,64.620000,8.820000
27.998551,-29.000000,16.000000,16373.000000,-7.000000,1.000000,-176.000000,64.800000,9.200000
28.001605,-30.000000,4.000000,16376.000000,9.000000,-3.000000,-174.000000,64.990000,9.510000
28.015530,-17.000000,16.000000,16369.000000,-15.000000,-2.000000,-157.000000,65.180000,9.660000
28.164357,-38.000000,7.000000,16390.000000,0.000000,4.000000,-173.000000,65.390000,10.120000
28.169905,-37.000000,10.000000,16381.000000,24.000000,10.000000,-155.000000,65.590000,10.350000
28.173367,-31.000000,9.000000,16379.000000,3.000000,32.000000,-183.000000,65.810000,10.970000
28.176040,-22.000000,23.000000,16378.000000,11.000000,4.000000,-164.000000,66.030000,10.740000
28.177418,-25.000000,2.000000,16385.000000,0.000000,3.000000,-165.000000,66.250000,11.040000
28.179679,-8.000000,13.000000,16380.000000,-11.000000,-8.000000,-158.000000,66.470000,10.810000
28.181521,-28.000000,8.000000,16389.000000,3.000000,-10.000000,-182.000000,66.670000,10.350000
28.183364,-33.000000,9.000000,16380.000000,-10.000000,8.000000,-161.000000,66.870000,9.890000
28.344227,-46.000000,13.000000,16383.000000,-4.000000,1.000000,-164.000000,67.060000,9.590000
28.346294,-35.000000,20.000000,16371.000000,13.000000,14.000000,-159.000000,67.250000,9.280000
28.347129,-26.000000,25.000000,16372.000000,-3.000000,4.000000,-194.000000,67.430000,9.130000
28.347818,-40.000000,11.000000,16378.000000,-2.000000,6.000000,-164.000000,67.610000,8.970000
28.348455,-37.000000,9.000000,16367.000000,-8.000000,6.000000,-182.000000,67.790000,9.050000
28.349149,-39.000000,-4.000000,16375.000000,-1.000000,10.000000,-160.000000,67.980000,9.430000
28.349801,-31.000000,18.000000,16366.000000,-4.000000,1.000000,-178.000000,68.170000,9.510000
28.350751,-39.000000,17.000000,16373.000000,0.000000,-9.000000,-167.000000,68.370000,9.890000
28.359778,-32.000000,-3.000000,16365.000000,-13.000000,21.000000,-182.000000,68.570000,9.890000
28.374732,-34.000000,23.000000,16361.000000,-5.000000,-11.000000,-171.000000,68.770000,10.120000
28.524115,-27.000000,2.000000,16340.000000,-7.000000,15.000000,-151.000000,68.970000,10.120000
28.526641,-36.000000,20.000000,16384.000000,-9.000000,21.000000,-164.000000,69.170000,10.120000
28.527455,-15.000000,8.000000,16361.000000,13.000000,-42.000000,-172.000000,69.380000,10.200000
28.529659,-24.000000,20.000000,16377.000000,12.000000,-2.000000,-178.000000,69.580000,10.280000
28.531821,-39.000000,-5.000000,16344.000000,-18.000000,-4.000000,-191.000000,69.780000,10.050000
28.533456,-30.000000,10.000000,16385.000000,7.000000,-19.000000,-184.000000,69.980000,9.660000
28.534315,-37.000000,3.000000,16359.000000,12.000000,17.000000,-170.000000,70.170000,9.590000
28.536526,-29.000000,21.000000,16371.000000,-17.000000,-3.000000,-159.000000,70.350000,9.050000
28.547465,-33.000000,-3.000000,16374.000000,-31.000000,-9.000000,-179.000000,70.530000,9.130000
28.701942,-39.000000,10.000000,16373.000000,-13.000000,-19.000000,-177.000000,70.710000,8.970000
28.704080,-32.000000,4.000000,16367.000000,-14.000000,-14.000000,-188.000000,70.890000,8.670000
28.705279,-33.000000,18.000000,16377.000000,13.000000,0.000000,-173.000000,71.060000,8.970000
28.706184,-44.000000,6.000000,16369.000000,-11.000000,10.000000,-177.000000,71.250000,9.430000
28.706933,-22.000000,13.000000,16371.000000,-4.000000,6.000000,-173.000000,71.450000,9.740000
28.707746,-31.000000,8.000000,16367.000000,-13.000000,-6.000000,-166.000000,71.650000,10.200000
28.708501,-28.000000,24.000000,16379.000000,0.000000,7.000000,-166.000000,71.860000,10.580000
28.717591,-30.000000,2.000000,16379.000000,18.000000,-3.000000,-157.000000,72.080000,10.890000
28.732831,-19.000000,35.000000,16373.000000,3.000000,-5.000000,-149.000000,72.300000,11.040000
28.869183,-46.000000,17.000000,16366.000000,-15.000000,6.000000,-188.000000,72.520000,11.040000
28.874763,-29.000000,3.000000,16374.000000,-4.000000,36.000000,-153.000000,72.740000,10.740000
28.875850,-30.000000,14.000000,16373.000000,-44.000000,13.000000,-161.000000,72.940000,10.120000
28.876819,-24.000000,19.000000,16372.000000,3.000000,-23.000000,-183.000000,73.140000,9.890000
28.877742,-24.000000,6.000000,16345.000000,-2.000000,8.000000,-166.000000,73.330000,9.590000
28.878764,-24.000000,15.000000,16379.000000,-25.000000,-4.000000,-181.000000,73.520000,9.360000
28.879814,-26.000000,5.000000,16371.000000,-20.000000,16.000000,-183.000000,73.700000,9.200000
28.887378,-17.000000,10.000000,16368.000000,20.000000,-22.000000,-173.000000,73.890000,9.200000
29.055173,-11.000000,10.000000,16371.000000,-6.000000,8.000000,-184.000000,74.070000,8.970000
29.061937,-25.000000,13.000000,16370.000000,7.000000,-8.000000,-170.000000,74.250000,9.430000
29.064951,-27.000000,-2.000000,16380.000000,8.000000,-10.000000,-170.000000,74.440000,9.430000
29.067919,-19.000000,-5.000000,16373.000000,-1.000000,-4.000000,-187.000000,74.640000,9.970000
29.070415,-36.000000,9.000000,16370.000000,12.000000,-2.000000,-180.000000,74.840000,9.890000
29.073033,-17.000000,21.000000,16380.000000,2.000000,-3.000000,-177.000000,75.040000,10.050000
29.074282,-34.000000,21.000000,16371.000000,0.000000,9.000000,-188.000000,75.240000,10.050000
29.075302,-28.000000,10.000000,16381.000000,-14.000000,-7.000000,-178.000000,75.450000,10.280000
29.076156,-37.000000,-1.000000,16379.000000,-7.000000,-20.000000,-164.000000,75.650000,10.280000
29.257835,-11.000000,5.000000,16374.000000,5.000000,7.000000,-174.000000,75.850000,9.820000
29.260773,-33.000000,12.000000,16367.000000,-9.000000,-22.000000,-181.000000,76.050000,10.050000
29.263300,-35.000000,6.000000,16379.000000,1.000000,-11.000000,-168.000000,76.240000,9.740000
29.266076,-31.000000,18.000000,16374.000000,0.000000,0.000000,-175.000000,76.440000,9.510000
29.267227,-33.000000,24.000000,16381.000000,-38.000000,4.000000,-162.000000,76.620000,9.200000
29.268177,-40.000000,9.000000,16380.000000,-34.000000,0.000000,-161.000000,76.800000,9.130000
29.268911,-29.000000,-1.000000,16377.000000,15.000000,15.000000,-153.000000,76.980000,8.970000
29.269613,-29.000000,17.000000,16377.000000,4.000000,-11.000000,-167.000000,77.160000,9.130000
29.270436,-32.000000,12.000000,16369.000000,-23.000000,5.000000,-180.000000,77.350000,9.130000
29.276341,-41.000000,7.000000,16364.000000,13.000000,1.000000,-184.000000,77.540000,9.510000
29.506433,-43.000000,17.000000,16371.000000,1.000000,7.000000,-191.000000,77.730000,9.590000
29.508375,-30.000000,24.000000,16376.000000,6.000000,17.000000,-172.000000,77.930000,10.120000
29.509086,-36.000000,10.000000,16349.000000,19.000000,12.000000,-157.000000,78.140000,10.510000
29.510996,-15.000000,12.000000,16369.000000,-2.000000,2.000000,-168.000000,78.360000,10.970000
29.512422,-26.000000,4.000000,16391.000000,-26.000000,10.000000,-172.000000,78.580000,10.890000
29.513458,-28.000000,5.000000,16370.000000,-3.000000,6.000000,-190.000000,78.800000,10.970000
29.514347,-27.000000,7.000000,16366.000000,17.000000,22.000000,-157.000000,79.010000,10.660000
29.515177,-28.000000,13.000000,16375.000000,-33.000000,-13.000000,-185.000000,79.210000,10.050000
29.516157,-36.000000,5.000000,16371.000000,11.000000,-9.000000,-168.000000,79.410000,9.890000
29.516993,-35.000000,6.000000,16384.000000,-7.000000,-2.000000,-184.000000,79.600000,9.360000
29.517742,-35.000000,19.000000,16382.000000,-32.000000,20.000000,-181.000000,79.780000,9.280000
29.518532,-33.000000,14.000000,16385.000000,-15.000000,-8.000000,-163.000000,79.960000,9.050000
29.702920,-30.000000,13.000000,16349.000000,0.000000,-16.000000,-165.000000,80.150000,9.200000
29.707796,-42.000000,13.000000,16365.000000,-12.000000,-12.000000,-181.000000,80.330000,8.970000
29.710379,-16.000000,9.000000,16376.000000,-6.000000,-9.000000,-183.000000,80.520000,9.510000
29.713500,-40.000000,16.000000,16374.000000,-4.000000,-15.000000,-167.000000,80.710000,9.510000
29.716070,-32.000000,14.000000,16371.000000,-13.000000,0.000000,-164.000000,80.910000,9.970000
29.718447,-39.000000,5.000000,16383.000000,-7.000000,4.000000,-169.000000,81.110000,9.970000
29.719584,-30.000000,12.000000,16372.000000,8.000000,1.000000,-176.000000,81.310000,10.200000
29.720524,-40.000000,9.000000,16380.000000,-12.000000,-5.000000,-170.000000,81.510000,9.970000
29.721364,-32.000000,14.000000,16383.000000,-12.000000,8.000000,-202.000000,81.710000,10.050000
29.722202,-31.000000,28.000000,16375.000000,-19.000000,3.000000,-171.000000,81.910000,10.200000
29.727976,-41.000000,12.000000,16368.000000,-9.000000,-4.000000,-168.000000,82.120000,10.050000
29.900963,-39.000000,6.000000,16373.000000,-5.000000,9.000000,-178.000000,82.320000,10.050000
29.903430,-45.000000,11.000000,16372.000000,-9.000000,-13.000000,-177.000000,82.510000,9.590000
29.904602,-40.000000,13.000000,16382.000000,-16.000000,6.000000,-177.000000,82.700000,9.510000
29.905517,-44.000000,19.000000,16367.000000,-25.000000,-8.000000,-171.000000,82.880000,9.200000
29.906378,-27.000000,4.000000,16364.000000,-4.000000,-18.000000,-181.000000,83.060000,8.900000
29.907330,-18.000000,10.000000,16357.000000,-14.000000,32.000000,-194.000000,83.240000,9.050000
29.908265,-14.000000,16.000000,16376.000000,0.000000,-4.000000,-156.000000,83.420000,8.900000
29.909136,-30.000000,1.000000,16370.000000,-27.000000,-8.000000,-168.000000,83.600000,9.200000
29.914565,-30.000000,14.000000,16375.000000,15.000000,-2.000000,-165.000000,83.790000,9.430000
30.089934,-33.000000,5.000000,16378.000000,-2.000000,-6.000000,-185.000000,83.990000,9.740000
30.092340,-46.000000,16.000000,16373.000000,-33.000000,-6.000000,-188.000000,84.190000,9.970000
30.093328,-40.000000,5.000000,16374.000000,-20.000000,6.000000,-171.000000,84.390000,10.350000
30.094079,-23.000000,26.000000,16371.000000,-9.000000,-1.000000,-187.000000,84.610000,10.740000
30.094955,-18.000000,0.000000,16374.000000,-8.000000,4.000000,-171.000000,84.820000,10.810000
30.095839,-18.000000,30.000000,16376.000000,-32.000000,25.000000,-175.000000,85.040000,10.970000
30.096615,-39.000000,7.000000,16382.000000,-11.000000,-6.000000,-184.000000,85.260000,10.740000
30.097347,-26.000000,20.000000,16377.000000,-6.000000,7.000000,-169.000000,85.460000,10.200000
30.099793,-40.000000,14.000000,16372.000000,-3.000000,-19.000000,-190.000000,85.670000,10.120000
30.260386,-19.000000,5.000000,16374.000000,-2.000000,-12.000000,-188.000000,85.860000,9.590000
30.264110,-35.000000,8.000000,16378.000000,-11.000000,1.000000,-173.000000,86.050000,9.510000
30.265014,-27.000000,20.000000,16370.000000,-10.000000,-1.000000,-160.000000,86.230000,8.970000
30.265743,-36.000000,4.000000,16371.000000,-6.000000,-5.000000,-168.000000,86.420000,9.430000
30.266415,-28.000000,9.000000,16380.000000,-1.000000,7.000000,-169.000000,86.600000,9.050000
30.267108,-45.000000,-1.000000,16353.000000,-14.000000,-7.000000,-174.000000,86.780000,9.360000
30.267837,-26.000000,17.000000,16385.000000,-9.000000,1.000000,-174.000000,86.980000,9.740000
30.268517,-17.000000,29.000000,16374.000000,-11.000000,3.000000,-177.000000,87.180000,9.970000
30.270491,-23.000000,22.000000,16385.000000,-15.000000,-9.000000,-175.000000,87.380000,9.970000
30.445554,-33.000000,8.000000,16359.000000,8.000000,-1.000000,-175.000000,87.570000,9.890000
30.450819,-28.000000,5.000000,16376.000000,-11.000000,17.000000,-171.000000,87.770000,9.970000
30.452375,-33.000000,20.000000,16378.000000,8.000000,1.000000,-181.000000,87.980000,10.120000
30.454553,-39.000000,12.000000,16373.000000,-10.000000,9.000000,-178.000000,88.180000,10.200000
30.457019,-38.000000,-6.000000,16375.000000,-5.000000,-2.000000,-175.000000,88.380000,10.050000
30.459451,-43.000000,8.000000,16376.000000,-25.000000,0.000000,-165.000000,88.580000,10.120000
30.461823,-26.000000,6.000000,16372.000000,1.000000,0.000000,-165.000000,88.780000,9.820000
30.464843,-27.000000,4.000000,16379.000000,-10.000000,21.000000,-169.000000,88.970000,9.660000
30.467159,-27.000000,14.000000,16387.000000,5.000000,9.000000,-185.000000,89.160000,9.200000
30.472905,-17.000000,19.000000,16367.000000,-18.000000,0.000000,-161.000000,89.340000,9.050000
30.613701,-15.000000,21.000000,16366.000000,-12.000000,19.000000,-174.000000,89.520000,9.050000
30.616470,-25.000000,16.000000,16367.000000,-9.000000,-26.000000,-195.000000,89.700000,9.130000
30.617428,-28.000000,5.000000,16366.000000,14.000000,-4.000000,-173.000000,89.880000,9.050000
30.618341,-34.000000,17.000000,16382.000000,-7.000000,-14.000000,-183.000000,90.070000,9.430000
30.619100,-49.000000,11.000000,16365.000000,8.000000,-6.000000,-182.000000,90.270000,9.660000
30.619793,-34.000000,12.000000,16371.000000,7.000000,-2.000000,-160.000000,90.470000,10.050000
30.620745,-29.000000,36.000000,16381.000000,-11.000000,0.000000,-171.000000,90.670000,10.350000
30.630219,-22.000000,19.000000,16363.000000,-9.000000,-16.000000,-182.000000,90.890000,10.580000
30.798993,-17.000000,22.000000,16379.000000,-9.000000,-15.000000,-172.000000,91.100000,10.810000
30.804629,-21.000000,18.000000,16368.000000,-7.000000,4.000000,-166.000000,91.320000,10.740000
30.806997,-29.000000,16.000000,16361.000000,20.000000,-9.000000,-153.000000,91.530000,10.740000
30.808373,-50.000000,13.000000,16368.000000,-8.000000,-2.000000,-170.000000,91.730000,10.120000
30.809329,-20.000000,24.000000,16373.000000,-21.000000,-9.000000,-166.000000,91.940000,10.120000
30.810213,-25.000000,4.000000,16374.000000,-4.000000,-2.000000,-166.000000,92.130000,9.510000
30.812530,-11.000000,11.000000,16372.000000,-6.000000,-11.000000,-168.000000,92.320000,9.660000
30.815662,-28.000000,23.000000,16374.000000,-12.000000,-16.000000,-162.000000,92.500000,8.970000
30.818286,-38.000000,8.000000,16372.000000,-1.000000,-5.000000,-187.000000,92.690000,9.590000
30.983874,-33.000000,11.000000,16376.000000,15.000000,25.000000,-181.000000,92.880000,9.280000
30.990300,-50.000000,13.000000,16380.000000,10.000000,-2.000000,-184.000000,93.070000,9.590000
30.992859,-43.000000,5.000000,16369.000000,-25.000000,7.000000,-177.000000,93.270000,9.970000
30.995655,-29.000000,-3.000000,16364.000000,4.000000,-5.000000,-196.000000,93.470000,10.050000
30.998467,-23.000000,13.000000,16379.000000,-17.000000,-18.000000,-193.000000,93.680000,10.350000
31.001156,-27.000000,-5.000000,16369.000000,-9.000000,8.000000,-196.000000,93.890000,10.510000
31.003999,-22.000000,28.000000,16360.000000,-12.000000,9.000000,-139.000000,94.090000,10.280000
31.006485,-37.000000,12.000000,16362.000000,-2.000000,-21.000000,-141.000000,94.300000,10.200000
31.007921,-34.000000,21.000000,16362.000000,5.000000,-11.000000,-172.000000,94.500000,10.350000
31.202405,-35.000000,16.000000,16361.000000,-23.000000,3.000000,-178.000000,94.710000,10.430000
31.207887,-35.000000,18.000000,16366.000000,-13.000000,-8.000000,-185.000000,94.920000,10.280000
31.208960,-40.000000,-4.000000,16385.000000,-2.000000,8.000000,-174.000000,95.120000,9.970000
31.209907,-17.000000,25.000000,16369.000000,-10.000000,-18.000000,-191.000000,95.320000,9.970000
31.210678,-25.000000,8.000000,16377.000000,-5.000000,-20.000000,-172.000000,95.500000,9.430000
31.211486,-34.000000,12.000000,16374.000000,-13.000000,-17.000000,-171.000000,95.690000,9.510000
31.212258,-17.000000,17.000000,16371.000000,-18.000000,17.000000,-180.000000,95.880000,9.280000
31.212933,-41.000000,14.000000,16351.000000,-9.000000,16.000000,-177.000000,96.070000,9.280000
31.213589,-33.000000,8.000000,16382.000000,6.000000,-9.000000,-169.000000,96.260000,9.590000
31.214233,-28.000000,-3.000000,16370.000000,-30.000000,-2.000000,-181.000000,96.450000,9.740000
31.220991,-15.000000,13.000000,16370.000000,-3.000000,-19.000000,-176.000000,96.650000,10.120000
31.368867,-28.000000,7.000000,16370.000000,-32.000000,28.000000,-190.000000,96.860000,10.430000
31.371260,-28.000000,16.000000,16364.000000,19.000000,-10.000000,-170.000000,97.080000,10.810000
31.372296,-16.000000,12.000000,16373.000000,19.000000,-32.000000,-161.000000,97.310000,11.350000
31.373066,-31.000000,12.000000,16365.000000,0.000000,-12.000000,-182.000000,97.530000,11.120000
31.374755,-43.000000,8.000000,16369.000000,-6.000000,10.000000,-177.000000,97.760000,11.430000
31.377549,-28.000000,13.000000,16355.000000,-8.000000,-19.000000,-181.000000,97.980000,10.970000
31.380411,-26.000000,9.000000,16369.000000,20.000000,-9.000000,-164.000000,98.190000,10.890000
31.383198,-35.000000,-2.000000,16335.000000,-17.000000,-13.000000,-176.000000,98.400000,10.280000
31.390435,-22.000000,17.000000,16351.000000,5.000000,4.000000,-175.000000,98.610000,10.430000
31.545056,-31.000000,-1.000000,16371.000000,1.000000,10.000000,-185.000000,98.810000,9.820000
31.550220,-31.000000,10.000000,16345.000000,-7.000000,1.000000,-174.000000,99.010000,10.050000
31.552705,-38.000000,11.000000,16365.000000,-3.000000,-16.000000,-175.000000,99.200000,9.590000
31.553805,-29.000000,3.000000,16348.000000,-13.000000,1.000000,-185.000000,99.400000,10.200000
31.554665,-36.000000,18.000000,16357.000000,-1.000000,-8.000000,-185.000000,99.610000,10.280000
31.555459,-17.000000,7.000000,16368.000000,-8.000000,1.000000,-183.000000,99.820000,10.510000
31.556209,-33.000000,10.000000,16352.000000,-25.000000,3.000000,-185.000000,100.030000,10.740000
31.561166,-29.000000,8.000000,16361.000000,-39.000000,-2.000000,-173.000000,100.250000,10.740000
31.723148,-23.000000,17.000000,16348.000000,3.000000,-9.000000,-177.000000,100.460000,10.660000
31.727379,-23.000000,-1.000000,16360.000000,0.000000,1.000000,-189.000000,100.680000,11.040000
31.729928,-37.000000,9.000000,16382.000000,-34.000000,-18.000000,-181.000000,100.900000,10.890000
31.730947,-28.000000,-2.000000,16349.000000,0.000000,3.000000,-153.000000,101.120000,11.040000
31.731940,-24.000000,20.000000,16350.000000,6.000000,-27.000000,-165.000000,101.330000,10.580000
31.734553,-39.000000,12.000000,16349.000000,5.000000,-6.000000,-152.000000,101.540000,10.350000
31.736528,-44.000000,8.000000,16356.000000,-10.000000,-13.000000,-171.000000,101.740000,10.050000
31.737400,-28.000000,-1.000000,16342.000000,-12.000000,6.000000,-171.000000,101.930000,9.660000
31.738197,-37.000000,5.000000,16354.000000,0.000000,0.000000,-167.000000,102.120000,9.590000
31.750079,-38.000000,7.000000,16372.000000,-2.000000,8.000000,-175.000000,102.320000,9.740000
31.886935,-44.000000,14.000000,16370.000000,7.000000,-17.000000,-165.000000,102.510000,9.740000
31.890270,-30.000000,13.000000,16351.000000,-13.000000,15.000000,-166.000000,102.720000,10.050000
31.891418,-13.000000,6.000000,16373.000000,-14.000000,-16.000000,-176.000000,102.930000,10.510000
31.892189,-16.000000,5.000000,16346.000000,-11.000000,12.000000,-185.000000,103.140000,10.890000
31.892715,-27.000000,10.000000,16372.000000,-7.000000,5.000000,-171.000000,103.370000,11.200000
31.893293,-27.000000,7.000000,16376.000000,-15.000000,-11.000000,-171.000000,103.600000,11.810000
31.893955,-3.000000,19.000000,16349.000000,2.000000,13.000000,-196.000000,103.840000,11.890000
31.920047,-15.000000,37.000000,16348.000000,-25.000000,0.000000,-174.000000,104.080000,12.040000
32.063187,-36.000000,18.000000,16354.000000,-28.000000,-1.000000,-186.000000,104.310000,11.350000
32.065165,-40.000000,17.000000,16380.000000,-5.000000,-1.000000,-189.000000,104.530000,11.040000
32.065919,-23.000000,17.000000,16370.000000,7.000000,9.000000,-169.000000,104.740000,10.580000
32.066626,-34.000000,3.000000,16379.000000,7.000000,-12.000000,-178.000000,104.950000,10.430000
32.067251,-30.000000,5.000000,16367.000000,-17.000000,-10.000000,-178.000000,105.150000,10.120000
32.067819,-45.000000,2.000000,16348.000000,6.000000,-3.000000,-159.000000,105.360000,10.120000
32.068477,-32.000000,0.000000,16366.000000,-2.000000,0.000000,-187.000000,105.560000,10.200000
32.076389,-29.000000,19.000000,16368.000000,42.000000,5.000000,-164.000000,105.770000,10.580000
32.091286,-27.000000,2.000000,16365.000000,-14.000000,-5.000000,-186.000000,105.980000,10.580000
32.271101,-33.000000,3.000000,16356.000000,18.000000,16.000000,-183.000000,106.200000,10.970000
32.274083,-13.000000,6.000000,16364.000000,-13.000000,-5.000000,-177.000000,106.420000,10.970000
32.275053,-37.000000,5.000000,16381.000000,-7.000000,0.000000,-166.000000,106.640000,10.890000
32.275843,-36.000000,14.000000,16370.000000,-15.000000,14.000000,-179.000000,106.870000,11.350000
32.277238,-23.000000,5.000000,16361.000000,-17.000000,18.000000,-177.000000,107.090000,11.350000
32.279115,-24.000000,6.000000,16340.000000,-17.000000,-5.000000,-183.000000,107.320000,11.200000
32.280718,-25.000000,9.000000,16365.000000,13.000000,-10.000000,-186.000000,107.540000,11.040000
32.282781,-30.000000,12.000000,16377.000000,-13.000000,-15.000000,-171.000000,107.750000,10.430000
32.284754,-15.000000,-6.000000,16363.000000,-9.000000,-4.000000,-175.000000,107.960000,10.510000
32.448915,-19.000000,33.000000,16357.000000,16.000000,-4.000000,-194.000000,108.160000,10.120000
32.452161,-33.000000,26.000000,16388.000000,-13.000000,7.000000,-180.000000,108.370000,10.280000
32.453305,-47.000000,15.000000,16368.000000,-18.000000,7.000000,-179.000000,108.560000,9.970000
32.454189,-48.000000,-3.000000,16379.000000,-19.000000,15.000000,-188.000000,108.770000,10.510000
32.454911,-37.000000,20.000000,16377.000000,-9.000000,5.000000,-185.000000,108.990000,10.970000
32.455510,-24.000000,14.000000,16374.000000,-10.000000,8.000000,-161.000000,109.220000,11.120000
32.456201,-24.000000,3.000000,16364.000000,-21.000000,1.000000,-156.000000,109.450000,11.580000
32.456870,-24.000000,24.000000,16371.000000,-3.000000,-2.000000,-165.000000,109.690000,11.970000
32.457510,-34.000000,29.000000,16385.000000,-4.000000,-4.000000,-192.000000,109.940000,12.580000
32.480080,-32.000000,4.000000,16385.000000,-7.000000,-5.000000,-190.000000,110.190000,12.500000
32.629019,-43.000000,7.000000,16387.000000,10.000000,3.000000,-195.000000,110.440000,12.580000
32.631507,-38.000000,-3.000000,16371.000000,-6.000000,21.000000,-164.000000,110.680000,11.890000
32.632458,-36.000000,2.000000,16377.000000,-13.000000,29.000000,-193.000000,110.900000,11.270000
32.633359,-25.000000,9.000000,16382.000000,-21.000000,-3.000000,-172.000000,111.120000,10.970000
32.634451,-23.000000,16.000000,16360.000000,-10.000000,11.000000,-179.000000,111.330000,10.350000
32.635485,-30.000000,12.000000,16357.000000,5.000000,5.000000,-162.000000,111.540000,10.510000
32.636438,-40.000000,9.000000,16333.000000,-21.000000,-3.000000,-195.000000,111.750000,10.280000
32.637355,-31.000000,-13.000000,16328.000000,12.000000,6.000000,-169.000000,111.960000,10.740000
32.651404,-28.000000,-3.000000,16323.000000,9.000000,-3.000000,-160.000000,112.180000,10.890000
32.819701,-39.000000,19.000000,16351.000000,-9.000000,0.000000,-180.000000,112.410000,11.510000
32.826277,-32.000000,-1.000000,16342.000000,-15.000000,4.000000,-187.000000,112.630000,11.200000
32.828216,-33.000000,16.000000,16344.000000,-10.000000,-18.000000,-164.000000,112.860000,11.500000
32.829653,-32.000000,11.000000,16380.000000,-21.000000,-9.000000,-184.000000,113.100000,11.660000
32.830624,-27.000000,-6.000000,16380.000000,-17.000000,-3.000000,-190.000000,113.330000,11.810000
32.831491,-30.000000,4.000000,16350.000000,-8.000000,11.000000,-164.000000,113.570000,11.660000
32.832267,-29.000000,14.000000,16386.000000,-10.000000,-15.000000,-172.000000,113.800000,11.510000
32.834228,-36.000000,21.000000,16379.000000,-19.000000,-16.000000,-181.000000,114.020000,11.200000
32.837539,-21.000000,13.000000,16371.000000,10.000000,-6.000000,-179.000000,114.240000,10.890000
32.986518,-15.000000,33.000000,16380.000000,-13.000000,-6.000000,-198.000000,114.440000,10.280000
32.989997,-24.000000,2.000000,16385.000000,-13.000000,-11.000000,-157.000000,114.650000,10.350000
32.990904,-20.000000,14.000000,16385.000000,-2.000000,20.000000,-169.000000,114.860000,10.430000
32.992247,-28.000000,4.000000,16375.000000,9.000000,10.000000,-168.000000,115.070000,10.580000
32.993424,-37.000000,21.000000,16361.000000,12.000000,2.000000,-175.000000,115.300000,11.350000
32.994744,-34.000000,19.000000,16383.000000,19.000000,-15.000000,-181.000000,115.530000,11.430000
32.997268,-28.000000,1.000000,16385.000000,-20.000000,-7.000000,-169.000000,115.770000,12.270000
33.000209,-13.000000,3.000000,16367.000000,-29.000000,3.000000,-158.000000,116.030000,12.730000
33.009701,-19.000000,18.000000,16351.000000,14.000000,-7.000000,-172.000000,116.290000,13.040000
33.309351,-35.000000,25.000000,16367.000000,-13.000000,-1.000000,-178.000000,116.550000,12.960000
33.311349,-32.000000,6.000000,16380.000000,-7.000000,8.000000,-196.000000,116.800000,12.500000
33.312195,-34.000000,0.000000,16352.000000,-27.000000,-7.000000,-178.000000,117.040000,12.040000
33.312933,-40.000000,-4.000000,16355.000000,-21.000000,2.000000,-179.000000,117.260000,11.280000
33.313614,-36.000000,18.000000,16335.000000,-13.000000,-23.000000,-172.000000,117.480000,11.120000
33.314211,-11.000000,14.000000,16377.000000,-7.000000,15.000000,-166.000000,117.700000,10.740000
33.314896,-29.000000,8.000000,16369.000000,-3.000000,4.000000,-169.000000,117.920000,10.810000
33.315514,-18.000000,-4.000000,16361.000000,-8.000000,-14.000000,-168.000000,118.130000,10.810000
33.316100,-35.000000,11.000000,16362.000000,-14.000000,-12.000000,-160.000000,118.360000,11.270000
33.316772,-25.000000,22.000000,16368.000000,-8.000000,-11.000000,-155.000000,118.590000,11.580000
33.317399,-41.000000,10.000000,16382.000000,-19.000000,-23.000000,-183.000000,118.820000,11.740000
33.318019,-18.000000,13.000000,16353.000000,-14.000000,0.000000,-190.000000,119.070000,12.120000
33.318733,-18.000000,28.000000,16349.000000,16.000000,6.000000,-170.000000,119.310000,12.040000
33.319344,-27.000000,22.000000,16358.000000,-25.000000,-1.000000,-171.000000,119.560000,12.430000
33.320914,-32.000000,2.000000,16378.000000,-19.000000,-21.000000,-157.000000,119.800000,12.270000
33.336773,-36.000000,7.000000,16378.000000,-21.000000,5.000000,-182.000000,120.040000,12.120000
33.534501,-46.000000,7.000000,16369.000000,-3.000000,15.000000,-174.000000,120.280000,11.730000
33.536331,-22.000000,-1.000000,16333.000000,-12.000000,-2.000000,-177.000000,120.510000,11.510000
33.537098,-25.000000,16.000000,16372.000000,15.000000,-8.000000,-163.000000,120.730000,11.040000
33.537782,-22.000000,19.000000,16373.000000,-11.000000,-27.000000,-178.000000,120.950000,11.040000
33.538462,-30.000000,11.000000,16378.000000,-16.000000,16.000000,-186.000000,121.170000,11.120000
33.539082,-29.000000,2.000000,16366.000000,20.000000,-8.000000,-175.000000,121.390000,11.120000
33.540248,-21.000000,-1.000000,16357.000000,-14.000000,-4.000000,-163.000000,121.630000,11.740000
33.541272,-50.000000,2.000000,16333.000000,-10.000000,7.000000,-173.000000,121.870000,12.200000
33.542137,-37.000000,23.000000,16374.000000,-8.000000,-3.000000,-171.000000,122.130000,12.810000
33.543098,-18.000000,24.000000,16384.000000,-12.000000,8.000000,-170.000000,122.400000,13.350000
33.556025,-34.000000,7.000000,16383.000000,-17.000000,-5.000000,-173.000000,122.660000,13.350000
33.760333,-34.000000,7.000000,16381.000000,-6.000000,-17.000000,-179.000000,122.930000,13.420000
33.766401,-50.000000,-2.000000,16335.000000,13.000000,-9.000000,-188.000000,123.180000,12.350000
33.767865,-41.000000,-2.000000,16341.000000,1.000000,3.000000,-174.000000,123.420000,11.970000
33.768924,-49.000000,14.000000,16363.000000,-35.000000,12.000000,-189.000000,123.650000,11.500000
33.769993,-33.000000,11.000000,16369.000000,-17.000000,0.000000,-176.000000,123.870000,11.120000
33.772848,-20.000000,-3.000000,16380.000000,-19.000000,12.000000,-202.000000,124.090000,11.120000
33.774279,-9.000000,7.000000,16364.000000,-10.000000,-5.000000,-170.000000,124.320000,11.200000
33.775395,-22.000000,8.000000,16367.000000,-16.000000,24.000000,-183.000000,124.550000,11.580000
33.776301,-36.000000,11.000000,16365.000000,18.000000,-11.000000,-180.000000,124.780000,11.810000
33.777121,-46.000000,15.000000,16382.000000,-12.000000,13.000000,-177.000000,125.030000,12.350000
33.779057,-36.000000,14.000000,16381.000000,-9.000000,8.000000,-168.000000,125.280000,12.350000
33.787788,-36.000000,5.000000,16383.000000,3.000000,-26.000000,-154.000000,125.530000,12.430000
33.944868,-18.000000,-3.000000,16380.000000,1.000000,-11.000000,-190.000000,125.780000,12.500000
33.948357,-34.000000,8.000000,16358.000000,-1.000000,13.000000,-169.000000,126.030000,12.430000
33.949438,-37.000000,0.000000,16370.000000,-7.000000,-3.000000,-173.000000,126.270000,12.120000
33.950629,-31.000000,24.000000,16375.000000,-21.000000,13.000000,-168.000000,126.510000,11.970000
33.953231,-33.000000,9.000000,16399.000000,-8.000000,-13.000000,-180.000000,126.740000,11.580000
33.954655,-32.000000,0.000000,16404.000000,-8.000000,4.000000,-191.000000,126.960000,11.040000
33.955758,-41.000000,6.000000,16381.000000,-8.000000,5.000000,-193.000000,127.180000,11.040000
33.957348,-14.000000,13.000000,16363.000000,-10.000000,-27.000000,-171.000000,127.400000,10.970000
33.972958,-25.000000,16.000000,16363.000000,-10.000000,-8.000000,-159.000000,127.620000,11.200000
34.115415,-34.000000,20.000000,16376.000000,-16.000000,5.000000,-163.000000,127.860000,11.810000
34.118474,-44.000000,15.000000,16401.000000,1.000000,23.000000,-176.000000,128.100000,11.970000
34.119452,-38.000000,-5.000000,16391.000000,9.000000,-13.000000,-178.000000,128.350000,12.660000
34.121674,-34.000000,0.000000,16387.000000,20.000000,-24.000000,-145.000000,128.620000,13.190000
34.124149,-36.000000,11.000000,16382.000000,-19.000000,18.000000,-169.000000,128.880000,13.350000
34.125639,-12.000000,11.000000,16375.000000,-24.000000,-5.000000,-186.000000,129.160000,13.580000
34.126797,-17.000000,11.000000,16373.000000,2.000000,-3.000000,-164.000000,129.410000,12.890000
34.128938,-25.000000,17.000000,16379.000000,-14.000000,9.000000,-197.000000,129.660000,12.430000
34.294788,-45.000000,14.000000,16407.000000,8.000000,21.000000,-179.000000,129.900000,11.890000
34.297526,-35.000000,0.000000,16390.000000,2.000000,-23.000000,-174.000000,130.140000,11.810000
34.299120,-39.000000,1.000000,16386.000000,5.000000,-5.000000,-176.000000,130.370000,11.810000
34.302051,-24.000000,1.000000,16392.000000,5.000000,-4.000000,-166.000000,130.600000,11.430000
34.304784,-27.000000,7.000000,16383.000000,-12.000000,-17.000000,-170.000000,130.850000,12.270000
34.307005,-18.000000,-8.000000,16356.000000,6.000000,3.000000,-152.000000,131.090000,12.200000
34.308014,-28.000000,1.000000,16353.000000,-8.000000,-25.000000,-163.000000,131.340000,12.580000
34.309076,-39.000000,30.000000,16373.000000,-22.000000,0.000000,-173.000000,131.590000,12.660000
34.315684,-32.000000,31.000000,16379.000000,-3.000000,-5.000000,-164.000000,131.850000,12.650000
34.475258,-26.000000,6.000000,16406.000000,-18.000000,-9.000000,-171.000000,132.100000,12.890000
34.476975,-39.000000,6.000000,16412.000000,-2.000000,-2.000000,-176.000000,132.360000,12.660000
34.477629,-18.000000,11.000000,16387.000000,-11.000000,-25.000000,-165.000000,132.610000,12.660000
34.478300,-11.000000,9.000000,16382.000000,-19.000000,17.000000,-194.000000,132.850000,12.120000
34.479023,-24.000000,15.000000,16379.000000,-11.000000,-11.000000,-185.000000,133.090000,11.890000
34.479923,-40.000000,3.000000,16376.000000,15.000000,8.000000,-154.000000,133.320000,11.580000
34.480618,-44.000000,5.000000,16385.000000,-16.000000,19.000000,-171.000000,133.550000,11.580000
34.481403,-22.000000,18.000000,16359.000000,6.000000,11.000000,-162.000000,133.790000,11.580000
34.487407,-3.000000,31.000000,16380.000000,4.000000,15.000000,-170.000000,134.030000,12.040000
34.667719,-11.000000,39.000000,16387.000000,-2.000000,-6.000000,-180.000000,134.280000,12.580000
34.670362,-33.000000,19.000000,16377.000000,-18.000000,21.000000,-185.000000,134.540000,13.040000
34.672499,-36.000000,22.000000,16393.000000,-1.000000,0.000000,-181.000000,134.810000,13.500000
34.674244,-31.000000,9.000000,16392.000000,-9.000000,-9.000000,-166.000000,135.090000,13.880000
34.675928,-25.000000,1.000000,16375.000000,13.000000,7.000000,-158.000000,135.370000,14.040000
34.677402,-45.000000,-12.000000,16396.000000,-10.000000,19.000000,-172.000000,135.640000,13.580000
34.679016,-27.000000,-1.000000,16378.000000,-5.000000,-3.000000,-167.000000,135.900000,13.120000
34.680410,-22.000000,14.000000,16381.000000,-16.000000,20.000000,-184.000000,136.150000,12.500000
34.681932,-19.000000,-2.000000,16364.000000,-8.000000,-18.000000,-173.000000,136.390000,12.120000
34.687327,-41.000000,-10.000000,16371.000000,-2.000000,19.000000,-204.000000,136.630000,11.970000
34.834746,-39.000000,3.000000,16366.000000,-14.000000,16.000000,-161.000000,136.870000,11.970000
34.836912,-30.000000,-5.000000,16371.000000,9.000000,3.000000,-163.000000,137.120000,12.350000
34.837720,-17.000000,2.000000,16370.000000,-2.000000,-1.000000,-169.000000,137.370000,12.660000
34.838379,-30.000000,-4.000000,16382.000000,8.000000,6.000000,-168.000000,137.630000,13.040000
34.840531,-22.000000,19.000000,16368.000000,-10.000000,-11.000000,-175.000000,137.890000,12.960000
34.842882,-31.000000,11.000000,16366.000000,-8.000000,2.000000,-175.000000,138.150000,13.040000
34.843893,-30.000000,10.000000,16366.000000,23.000000,1.000000,-168.000000,138.420000,13.190000
34.857366,-34.000000,26.000000,16371.000000,-1.000000,-6.000000,-168.000000,138.680000,13.040000
35.053635,-45.000000,23.000000,16389.000000,-1.000000,-20.000000,-181.000000,138.940000,13.040000
35.058558,-46.000000,23.000000,16375.000000,12.000000,0.000000,-180.000000,139.190000,12.650000
35.059444,-20.000000,35.000000,16377.000000,9.000000,20.000000,-167.000000,139.440000,12.200000
35.060200,-12.000000,38.000000,16376.000000,-21.000000,1.000000,-188.000000,139.670000,11.660000
35.060828,-18.000000,6.000000,16392.000000,-2.000000,8.000000,-171.000000,139.900000,11.580000
35.063321,-36.000000,10.000000,16389.000000,-29.000000,9.000000,-173.000000,140.140000,11.810000
35.064632,-34.000000,-3.000000,16370.000000,15.000000,-3.000000,-168.000000,140.380000,12.270000
35.066999,-34.000000,14.000000,16385.000000,-5.000000,8.000000,-177.000000,140.640000,13.040000
35.068793,-40.000000,10.000000,16384.000000,0.000000,11.000000,-172.000000,140.910000,13.580000
35.070667,-37.000000,4.000000,16389.000000,8.000000,-9.000000,-160.000000,141.200000,14.110000
35.073237,-41.000000,14.000000,16383.000000,21.000000,-29.000000,-144.000000,141.490000,14.420000
35.240936,-18.000000,8.000000,16372.000000,9.000000,19.000000,-159.000000,141.780000,14.650000
35.245890,-28.000000,-14.000000,16384.000000,-22.000000,-6.000000,-170.000000,142.050000,13.730000
35.247306,-40.000000,-3.000000,16379.000000,33.000000,10.000000,-158.000000,142.320000,13.350000
35.248192,-38.000000,17.000000,16377.000000,-12.000000,15.000000,-196.000000,142.580000,12.890000
35.248910,-43.000000,26.000000,16386.000000,14.000000,0.000000,-153.000000,142.830000,12.500000
35.249523,-23.000000,24.000000,16382.000000,-9.000000,10.000000,-172.000000,143.070000,12.190000
35.250231,-38.000000,13.000000,16379.000000,20.000000,4.000000,-143.000000,143.320000,12.430000
35.251295,-20.000000,2.000000,16377.000000,-11.000000,6.000000,-168.000000,143.570000,12.730000
35.258353,-18.000000,15.000000,16378.000000,6.000000,-15.000000,-168.000000,143.840000,13.190000
35.405179,-15.000000,19.000000,16377.000000,20.000000,-14.000000,-153.000000,144.100000,13.270000
35.409872,-35.000000,13.000000,16382.000000,17.000000,-10.000000,-171.000000,144.370000,13.420000
35.411264,-37.000000,15.000000,16377.000000,-10.000000,9.000000,-182.000000,144.640000,13.500000
35.414166,-36.000000,27.000000,16385.000000,-34.000000,-26.000000,-174.000000,144.910000,13.500000
35.417040,-23.000000,14.000000,16372.000000,20.000000,-5.000000,-147.000000,145.180000,13.500000
35.418635,-28.000000,15.000000,16386.000000,-10.000000,-3.000000,-179.000000,145.440000,13.040000
35.421509,-14.000000,13.000000,16385.000000,-12.000000,-5.000000,-173.000000,145.690000,12.580000
35.423994,-43.000000,16.000000,16388.000000,8.000000,-11.000000,-173.000000,145.940000,12.350000
35.431019,-35.000000,11.000000,16376.000000,-8.000000,-2.000000,-176.000000,146.180000,11.810000
35.591002,-39.000000,11.000000,16379.000000,-28.000000,-3.000000,-177.000000,146.420000,12.040000
35.596569,-33.000000,13.000000,16380.000000,15.000000,-11.000000,-160.000000,146.670000,12.500000
35.599134,-52.000000,23.000000,16382.000000,-20.000000,32.000000,-183.000000,146.930000,13.190000
35.601834,-25.000000,23.000000,16379.000000,-5.000000,9.000000,-179.000000,147.210000,13.810000
35.603581,-23.000000,24.000000,16382.000000,2.000000,-4.000000,-166.000000,147.500000,14.570000
35.605116,-23.000000,23.000000,16367.000000,-28.000000,3.000000,-175.000000,147.800000,14.800000
35.606465,-30.000000,28.000000,16382.000000,1.000000,-16.000000,-172.000000,148.090000,14.880000
35.607374,-36.000000,25.000000,16361.000000,-9.000000,12.000000,-185.000000,148.370000,14.040000
35.616158,-31.000000,17.000000,16361.000000,-2.000000,-23.000000,-171.000000,148.640000,13.420000
35.769989,-49.000000,3.000000,16355.000000,-20.000000,6.000000,-175.000000,148.910000,13.190000
35.772819,-27.000000,2.000000,16372.000000,-1.000000,-9.000000,-181.000000,149.150000,12.350000
35.773730,-25.000000,-4.000000,16372.000000,-18.000000,4.000000,-185.000000,149.400000,12.430000
35.774507,-23.000000,-10.000000,16378.000000,5.000000,20.000000,-158.000000,149.660000,12.810000
35.775246,-19.000000,13.000000,16372.000000,-5.000000,-17.000000,-181.000000,149.920000,13.120000
35.776026,-38.000000,-1.000000,16372.000000,17.000000,-13.000000,-175.000000,150.190000,13.650000
35.776810,-32.000000,1.000000,16369.000000,-4.000000,-3.000000,-149.000000,150.470000,13.580000
35.777528,-7.000000,10.000000,16385.000000,2.000000,5.000000,-159.000000,150.740000,13.960000
35.799111,-29.000000,-8.000000,16374.000000,-1.000000,4.000000,-192.000000,151.030000,14.110000
35.951179,-36.000000,-8.000000,16372.000000,3.000000,-9.000000,-173.000000,151.300000,13.730000
35.954111,-33.000000,-4.000000,16385.000000,15.000000,1.000000,-165.000000,151.580000,13.730000
35.956391,-37.000000,-9.000000,16382.000000,-15.000000,-5.000000,-179.000000,151.840000,13.120000
35.957335,-46.000000,9.000000,16397.000000,0.000000,3.000000,-185.000000,152.080000,12.270000
35.958155,-40.000000,-2.000000,16383.000000,1.000000,-4.000000,-173.000000,152.330000,12.350000
35.958830,-46.000000,26.000000,16393.000000,-26.000000,13.000000,-179.000000,152.580000,12.350000
35.959510,-27.000000,27.000000,16377.000000,-2.000000,35.000000,-170.000000,152.830000,12.500000
35.960376,-17.000000,35.000000,16360.000000,5.000000,0.000000,-170.000000,153.090000,13.120000
35.970293,-31.000000,21.000000,16368.000000,9.000000,4.000000,-188.000000,153.360000,13.650000
36.120987,-40.000000,16.000000,16372.000000,-15.000000,-15.000000,-185.000000,153.650000,14.500000
36.122875,-25.000000,10.000000,16374.000000,-30.000000,7.000000,-177.000000,153.960000,15.260000
36.124553,-33.000000,17.000000,16361.000000,-21.000000,-11.000000,-177.000000,154.260000,15.340000
36.127345,-26.000000,-1.000000,16369.000000,-2.000000,8.000000,-153.000000,154.570000,15.110000
36.129972,-29.000000,0.000000,16389.000000,6.000000,9.000000,-175.000000,154.850000,14.040000
36.131521,-19.000000,-10.000000,16387.000000,-17.000000,29.000000,-176.000000,155.120000,13.500000
36.132451,-21.000000,9.000000,16377.000000,1.000000,11.000000,-190.000000,155.370000,12.810000
36.140348,-38.000000,15.000000,16379.000000,9.000000,1.000000,-166.000000,155.630000,12.650000
36.156543,-40.000000,18.000000,16367.000000,-10.000000,14.000000,-189.000000,155.890000,12.960000
36.294449,-36.000000,29.000000,16380.000000,3.000000,-3.000000,-173.000000,156.150000,13.420000
36.296134,-26.000000,6.000000,16370.000000,-8.000000,-15.000000,-184.000000,156.440000,14.110000
