Time_s,AccX,AccY,AccZ,GyrX,GyrY,GyrZ
0.814660,11.000000,1.000000,16380.000000,0.000000,15.000000,-16.000000
0.821886,-4.000000,9.000000,16383.000000,-256.000000,6.000000,-28.000000
0.877456,6.000000,-1.000000,16391.000000,-6.000000,4.000000,-17.000000
0.880090,-1.000000,7.000000,16379.000000,-6.000000,5.000000,-7.000000
0.881100,-8.000000,0.000000,16395.000000,28.000000,8.000000,-4.000000
0.881721,8.000000,8.000000,16381.000000,-8.000000,24.000000,-8.000000
0.882761,7.000000,1.000000,16380.000000,3.000000,15.000000,-15.000000
0.883571,2.000000,5.000000,16383.000000,11.000000,32.000000,2.000000
0.884985,3.000000,-6.000000,16397.000000,-6.000000,-3.000000,6.000000
0.891712,11.000000,1.000000,16395.000000,-14.000000,4.000000,-8.000000
0.907860,8.000000,-3.000000,16381.000000,-10.000000,2.000000,3.000000
0.922099,0.000000,8.000000,16401.000000,-13.000000,15.000000,0.000000
0.922934,-6.000000,-6.000000,16379.000000,0.000000,2.000000,1.000000
0.986070,-5.000000,-13.000000,16375.000000,-4.000000,22.000000,-17.000000
0.987053,6.000000,3.000000,16393.000000,19.000000,-12.000000,-8.000000
0.987993,-5.000000,9.000000,16365.000000,33.000000,-9.000000,8.000000
0.988638,7.000000,3.000000,16383.000000,17.000000,-7.000000,21.000000
0.989280,-6.000000,4.000000,16382.000000,35.000000,-1.000000,14.000000
0.989762,7.000000,7.000000,16371.000000,0.000000,8.000000,19.000000
1.000232,-3.000000,2.000000,16384.000000,13.000000,5.000000,5.000000
1.000976,2.000000,10.000000,16374.000000,28.000000,-22.000000,16.000000
1.016152,5.000000,-16.000000,16399.000000,-6.000000,-3.000000,9.000000
1.031760,1.000000,1.000000,16375.000000,15.000000,-4.000000,0.000000
1.032672,-10.000000,-11.000000,16383.000000,-6.000000,2.000000,16.000000
1.088628,-3.000000,9.000000,16374.000000,24.000000,-14.000000,6.000000
1.089360,-3.000000,5.000000,16394.000000,-15.000000,13.000000,-7.000000
1.089839,3.000000,1.000000,16382.000000,-16.000000,2.000000,5.000000
1.090229,-13.000000,-1.000000,16398.000000,-28.000000,4.000000,-16.000000
1.090577,-3.000000,0.000000,16400.000000,6.000000,3.000000,-7.000000
1.093535,-5.000000,-1.000000,16392.000000,-3.000000,7.000000,9.000000
1.108786,2.000000,0.000000,16384.000000,17.000000,-6.000000,6.000000
1.109569,1.000000,-11.000000,16399.000000,-10.000000,5.000000,10.000000
1.124685,2.000000,10.000000,16387.000000,4.000000,-12.000000,-4.000000
1.199588,0.000000,6.000000,16398.000000,0.000000,-3.000000,-10.000000
1.201190,-4.000000,-3.000000,16397.000000,7.000000,-8.000000,-8.000000
1.202692,-6.000000,-8.000000,16408.000000,18.000000,-8.000000,-8.000000
1.203973,5.000000,-4.000000,16371.000000,2.000000,-2.000000,13.000000
1.205615,0.000000,8.000000,16383.000000,4.000000,-3.000000,29.000000
1.206859,-2.000000,-8.000000,16396.000000,-17.000000,-20.000000,-12.000000
1.207511,2.000000,3.000000,16383.000000,14.000000,6.000000,-13.000000
1.208064,11.000000,-2.000000,16380.000000,-15.000000,14.000000,-1.000000
1.217769,6.000000,-7.000000,16369.000000,0.000000,14.000000,-5.000000
1.234380,-3.000000,18.000000,16371.000000,-11.000000,-4.000000,6.000000
1.235573,6.000000,0.000000,16375.000000,4.000000,-5.000000,-5.000000
1.312722,6.000000,0.000000,16373.000000,-25.000000,3.000000,-10.000000
1.314317,4.000000,-2.000000,16412.000000,-7.000000,-6.000000,-7.000000
1.315027,3.000000,3.000000,16398.000000,0.000000,4.000000,-7.000000
1.315557,-8.000000,-2.000000,16409.000000,13.000000,-5.000000,-20.000000
1.316423,-5.000000,8.000000,16378.000000,-9.000000,5.000000,3.000000
1.317081,15.000000,0.000000,16379.000000,10.000000,-22.000000,8.000000
1.317524,-7.000000,9.000000,16384.000000,0.000000,-27.000000,-6.000000
1.317973,11.000000,10.000000,16403.000000,-18.000000,-9.000000,-23.000000
1.327100,4.000000,-5.000000,16388.000000,-23.000000,12.000000,-13.000000
1.342489,-1.000000,3.000000,16403.000000,-4.000000,6.000000,-4.000000
1.343442,1.000000,-1.000000,16388.000000,-26.000000,-11.000000,-24.000000
1.418233,2.000000,4.000000,16399.000000,-11.000000,4.000000,-16.000000
1.419047,-1.000000,3.000000,16397.000000,-19.000000,3.000000,9.000000
1.419677,0.000000,-4.000000,16385.000000,-9.000000,-11.000000,17.000000
1.420216,5.000000,8.000000,16406.000000,-11.000000,2.000000,-2.000000
1.420614,0.000000,2.000000,16404.000000,11.000000,-11.000000,14.000000
1.421042,5.000000,1.000000,16383.000000,-15.000000,23.000000,-3.000000
1.421618,-1.000000,7.000000,16396.000000,22.000000,-15.000000,-2.000000
1.422059,-5.000000,10.000000,16401.000000,-7.000000,-5.000000,8.000000
1.435198,-2.000000,11.000000,16374.000000,15.000000,-4.000000,-5.000000
1.450973,-3.000000,4.000000,16396.000000,21.000000,12.000000,-16.000000
1.452102,-5.000000,6.000000,16406.000000,33.000000,-1.000000,-9.000000
1.528387,6.000000,14.000000,16378.000000,-20.000000,7.000000,-12.000000
1.529128,11.000000,15.000000,16390.000000,12.000000,-5.000000,-6.000000
1.529695,7.000000,10.000000,16407.000000,6.000000,-31.000000,-6.000000
1.530253,11.000000,7.000000,16413.000000,8.000000,-13.000000,-5.000000
1.530686,9.000000,4.000000,16390.000000,31.000000,5.000000,12.000000
1.531062,-1.000000,4.000000,16405.000000,0.000000,-5.000000,7.000000
1.531408,13.000000,-1.000000,16399.000000,-15.000000,-14.000000,4.000000
1.543475,11.000000,-4.000000,16404.000000,-18.000000,-8.000000,12.000000
1.544428,1.000000,-4.000000,16387.000000,-8.000000,-20.000000,-9.000000
1.560076,-5.000000,0.000000,16396.000000,29.000000,6.000000,13.000000
1.561881,2.000000,1.000000,16406.000000,8.000000,0.000000,8.000000
1.643134,0.000000,-2.000000,16371.000000,8.000000,-14.000000,-19.000000
1.644028,-12.000000,-2.000000,16403.000000,-2.000000,-18.000000,-3.000000
1.644644,-9.000000,9.000000,16388.000000,5.000000,-14.000000,-29.000000
1.645340,-1.000000,1.000000,16394.000000,-29.000000,-8.000000,-8.000000
1.645868,-8.000000,-17.000000,16381.000000,8.000000,-6.000000,-1.000000
1.646567,1.000000,7.000000,16403.000000,13.000000,-3.000000,-16.000000
1.647241,4.000000,-2.000000,16387.000000,-16.000000,-6.000000,-11.000000
1.653347,11.000000,3.000000,16379.000000,-8.000000,6.000000,-6.000000
1.654309,2.000000,9.000000,16382.000000,-12.000000,-4.000000,-28.000000
1.668810,9.000000,2.000000,16405.000000,-14.000000,-5.000000,-2.000000
1.671304,-13.000000,2.000000,16392.000000,-8.000000,-7.000000,-11.000000
1.683793,2.000000,5.000000,16402.000000,28.000000,3.000000,-9.000000
1.745733,2.000000,-6.000000,16404.000000,18.000000,14.000000,-2.000000
1.747056,1.000000,2.000000,16380.000000,4.000000,16.000000,-2.000000
1.747635,-4.000000,2.000000,16403.000000,5.000000,19.000000,10.000000
1.748179,-5.000000,-3.000000,16377.000000,32.000000,-22.000000,15.000000
1.748672,4.000000,-9.000000,16388.000000,28.000000,-6.000000,9.000000
1.749234,-6.000000,21.000000,16399.000000,0.000000,17.000000,8.000000
1.761031,-3.000000,7.000000,16385.000000,-3.000000,1.000000,8.000000
1.761921,-9.000000,1.000000,16385.000000,15.000000,-4.000000,-2.000000
1.776463,-14.000000,-15.000000,16405.000000,-11.000000,-14.000000,-26.000000
1.859141,3.000000,1.000000,16375.000000,12.000000,-7.000000,-4.000000
1.860193,0.000000,2.000000,16412.000000,-18.000000,-7.000000,23.000000
1.860860,7.000000,3.000000,16386.000000,2.000000,-26.000000,-3.000000
1.861286,-7.000000,11.000000,16372.000000,4.000000,-21.000000,4.000000
1.861855,-5.000000,1.000000,16367.000000,1.000000,5.000000,13.000000
1.862438,-5.000000,-9.000000,16384.000000,-18.000000,19.000000,5.000000
1.862872,-11.000000,-3.000000,16407.000000,9.000000,3.000000,1.000000
1.864056,-4.000000,-5.000000,16384.000000,2.000000,9.000000,-21.000000
1.870368,-3.000000,7.000000,16380.000000,-15.000000,4.000000,-6.000000
1.871190,3.000000,2.000000,16403.000000,-6.000000,-1.000000,9.000000
1.885273,11.000000,-1.000000,16385.000000,9.000000,-2.000000,16.000000
1.899785,-4.000000,-7.000000,16411.000000,19.000000,0.000000,7.000000
1.901025,11.000000,-13.000000,16397.000000,25.000000,-7.000000,-4.000000
2.000886,1.000000,8.000000,16395.000000,26.000000,-17.000000,-4.000000
2.002442,-8.000000,-4.000000,16387.000000,24.000000,12.000000,1.000000
2.003796,-1.000000,8.000000,16373.000000,-12.000000,-4.000000,-12.000000
2.005217,11.000000,-2.000000,16375.000000,-3.000000,1.000000,-3.000000
2.006556,-6.000000,15.000000,16377.000000,-26.000000,1.000000,-19.000000
2.008387,3.000000,5.000000,16380.000000,-28.000000,21.000000,-17.000000
2.009888,0.000000,-6.000000,16370.000000,13.000000,-14.000000,6.000000
2.011692,0.000000,-10.000000,16367.000000,2.000000,6.000000,-9.000000
2.013337,-7.000000,-4.000000,16378.000000,11.000000,3.000000,-1.000000
2.014956,1.000000,6.000000,16371.000000,4.000000,-15.000000,10.000000
2.023443,-4.000000,-10.000000,16381.000000,6.000000,-5.000000,17.000000
2.025132,5.000000,-4.000000,16378.000000,-5.000000,-20.000000,3.000000
2.038945,0.000000,-6.000000,16383.000000,-24.000000,6.000000,-2.000000
2.136055,-5.000000,8.000000,16379.000000,-14.000000,-8.000000,3.000000
2.138244,-1.000000,-1.000000,16372.000000,8.000000,-16.000000,4.000000
2.140051,20.000000,3.000000,16371.000000,6.000000,-1.000000,6.000000
2.141135,4.000000,-2.000000,16397.000000,22.000000,3.000000,10.000000
2.141905,5.000000,-1.000000,16373.000000,8.000000,11.000000,7.000000
2.142452,-8.000000,4.000000,16390.000000,-5.000000,18.000000,-4.000000
2.142909,15.000000,-13.000000,16383.000000,-2.000000,5.000000,-8.000000
2.143402,13.000000,-13.000000,16383.000000,5.000000,-24.000000,-2.000000
2.143835,-5.000000,15.000000,16392.000000,-6.000000,-6.000000,9.000000
2.144235,-11.000000,2.000000,16381.000000,16.000000,2.000000,10.000000
2.148337,-9.000000,10.000000,16384.000000,9.000000,-2.000000,-12.000000
2.149156,-12.000000,-7.000000,16393.000000,7.000000,-8.000000,-4.000000
2.164458,5.000000,-7.000000,16381.000000,-4.000000,7.000000,-14.000000
2.180271,3.000000,-1.000000,16395.000000,-10.000000,8.000000,-9.000000
2.276353,7.000000,-3.000000,16374.000000,-19.000000,-6.000000,-3.000000
2.278665,0.000000,7.000000,16368.000000,9.000000,10.000000,-17.000000
2.280319,-6.000000,13.000000,16388.000000,-25.000000,18.000000,2.000000
2.281014,-2.000000,5.000000,16366.000000,0.000000,7.000000,6.000000
2.281667,-1.000000,5.000000,16374.000000,-1.000000,18.000000,-5.000000
2.282114,2.000000,2.000000,16394.000000,13.000000,9.000000,5.000000
2.282666,2.000000,3.000000,16370.000000,1.000000,-4.000000,-8.000000
2.283090,-4.000000,-2.000000,16396.000000,12.000000,-9.000000,5.000000
2.283645,14.000000,-3.000000,16393.000000,0.000000,-8.000000,0.000000
2.284044,2.000000,-1.000000,16366.000000,15.000000,-15.000000,8.000000
2.289531,5.000000,13.000000,16374.000000,-23.000000,10.000000,-25.000000
2.290902,6.000000,0.000000,16383.000000,0.000000,-10.000000,-20.000000
2.305523,7.000000,3.000000,16415.000000,21.000000,-14.000000,1.000000
2.417354,-1.000000,5.000000,16401.000000,-15.000000,3.000000,-15.000000
2.419392,2.000000,11.000000,16399.000000,-12.000000,16.000000,-17.000000
2.421147,-9.000000,10.000000,16394.000000,7.000000,-4.000000,-17.000000
2.422757,4.000000,4.000000,16403.000000,31.000000,-3.000000,4.000000
2.424119,0.000000,0.000000,16387.000000,14.000000,31.000000,-1.000000
2.424769,-2.000000,7.000000,16399.000000,11.000000,13.000000,-8.000000
2.425200,-254.000000,-3.000000,16373.000000,-3.000000,11.000000,-30.000000
2.425943,1.000000,-1.000000,16381.000000,31.000000,-23.000000,10.000000
2.426627,-1.000000,-14.000000,16375.000000,9.000000,1.000000,12.000000
2.427270,-1.000000,4.000000,16379.000000,11.000000,-28.000000,0.000000
2.427806,0.000000,-9.000000,16374.000000,5.000000,-3.000000,-4.000000
2.429950,3.000000,-3.000000,16385.000000,1.000000,20.000000,-3.000000
2.431892,-5.000000,-1.000000,16378.000000,32.000000,10.000000,-5.000000
2.444956,10.000000,1.000000,16404.000000,16.000000,-6.000000,-6.000000
2.460346,-3.000000,5.000000,16406.000000,7.000000,-11.000000,-12.000000
2.461256,4.000000,1.000000,16373.000000,13.000000,-5.000000,-2.000000
2.520332,9.000000,7.000000,16381.000000,-12.000000,-11.000000,-6.000000
2.522121,13.000000,5.000000,16391.000000,6.000000,2.000000,-7.000000
2.522766,20.000000,-6.000000,16379.000000,4.000000,-3.000000,-19.000000
2.523182,-1.000000,0.000000,16394.000000,0.000000,7.000000,7.000000
2.523645,-3.000000,5.000000,16370.000000,-12.000000,-4.000000,5.000000
2.524042,-8.000000,17.000000,16377.000000,13.000000,-13.000000,8.000000
2.537396,-3.000000,7.000000,16387.000000,15.000000,4.000000,13.000000
2.553663,4.000000,4.000000,16383.000000,-11.000000,-7.000000,-18.000000
2.555201,4.000000,2.000000,16386.000000,-1.000000,4.000000,-10.000000
2.625455,2.000000,9.000000,16394.000000,12.000000,9.000000,-14.000000
2.626117,-7.000000,-4.000000,16382.000000,-24.000000,4.000000,-27.000000
2.626781,10.000000,17.000000,16380.000000,-2.000000,9.000000,-18.000000
2.627715,-9.000000,-9.000000,16384.000000,-11.000000,-7.000000,-8.000000
2.628570,-10.000000,-4.000000,16365.000000,1.000000,11.000000,14.000000
2.629128,0.000000,0.000000,16404.000000,22.000000,-13.000000,18.000000
2.630017,0.000000,4.000000,16373.000000,-25.000000,11.000000,-3.000000
2.630614,12.000000,11.000000,16388.000000,-6.000000,12.000000,-28.000000
2.647027,8.000000,2.000000,16371.000000,-23.000000,-1.000000,-10.000000
2.662290,-4.000000,12.000000,16391.000000,-5.000000,-11.000000,11.000000
2.663528,-3.000000,7.000000,16369.000000,0.000000,-15.000000,2.000000
2.725820,-6.000000,2.000000,16388.000000,-9.000000,-20.000000,-8.000000
2.726453,-3.000000,-1.000000,16391.000000,2.000000,5.000000,4.000000
2.726885,3.000000,-14.000000,16380.000000,6.000000,11.000000,-4.000000
2.727274,15.000000,-7.000000,16390.000000,14.000000,0.000000,0.000000
2.727709,-3.000000,-1.000000,16400.000000,7.000000,13.000000,-1.000000
2.728047,2.000000,2.000000,16381.000000,-6.000000,14.000000,-11.000000
2.739590,11.000000,6.000000,16386.000000,10.000000,-10.000000,-15.000000
2.741342,2.000000,6.000000,16389.000000,2.000000,4.000000,16.000000
2.755273,-1.000000,8.000000,16373.000000,-5.000000,-4.000000,-13.000000
2.824278,7.000000,-5.000000,16393.000000,-18.000000,17.000000,-14.000000
2.827079,3.000000,-4.000000,16372.000000,2.000000,10.000000,-3.000000
2.827807,0.000000,3.000000,16399.000000,-11.000000,-8.000000,5.000000
2.828424,-3.000000,19.000000,16382.000000,-1.000000,-28.000000,12.000000
2.829432,7.000000,10.000000,16366.000000,-12.000000,-23.000000,4.000000
2.833597,2.000000,11.000000,16354.000000,14.000000,-1.000000,16.000000
2.835011,-5.000000,-4.000000,16406.000000,-2.000000,3.000000,3.000000
2.835919,-13.000000,-12.000000,16386.000000,7.000000,-15.000000,5.000000
2.849386,-13.000000,0.000000,16378.000000,-20.000000,10.000000,-16.000000
2.852687,7.000000,6.000000,16398.000000,-4.000000,-13.000000,-15.000000
2.865447,2.000000,3.000000,16408.000000,-28.000000,0.000000,-5.000000
2.947497,7.000000,-6.000000,16383.000000,0.000000,2.000000,-4.000000
2.950147,6.000000,0.000000,16396.000000,-6.000000,9.000000,-9.000000
2.950910,-8.000000,-2.000000,16383.000000,3.000000,3.000000,0.000000
2.951436,19.000000,1.000000,16367.000000,4.000000,19.000000,7.000000
2.951893,1.000000,-1.000000,16393.000000,4.000000,10.000000,-1.000000
2.952439,1.000000,18.000000,16385.000000,-6.000000,-19.000000,12.000000
2.953970,-3.000000,1.000000,16383.000000,9.000000,-16.000000,7.000000
2.955717,5.000000,6.000000,16397.000000,7.000000,5.000000,-33.000000
2.958644,16.000000,-2.000000,16396.000000,-11.000000,18.000000,-21.000000
2.959904,-3.000000,9.000000,16386.000000,-32.000000,22.000000,-21.000000
2.973446,0.000000,7.000000,16391.000000,-19.000000,-7.000000,-20.000000
3.055243,2.000000,-7.000000,16372.000000,-31.000000,0.000000,-19.000000
3.056736,-3.000000,-11.000000,16388.000000,-7.000000,16.000000,12.000000
3.057367,4.000000,14.000000,16398.000000,-8.000000,2.000000,-11.000000
3.057890,-4.000000,-8.000000,16400.000000,1.000000,-5.000000,5.000000
3.058365,-7.000000,4.000000,16369.000000,-13.000000,-5.000000,-6.000000
3.058867,2.000000,10.000000,16392.000000,-14.000000,8.000000,12.000000
3.059295,-5.000000,11.000000,16388.000000,-12.000000,7.000000,13.000000
3.059736,4.000000,6.000000,16396.000000,247.000000,7.000000,29.000000
3.068249,1.000000,15.000000,16362.000000,24.000000,5.000000,5.000000
3.070108,2.000000,11.000000,16384.000000,-2.000000,7.000000,12.000000
3.083153,2.000000,0.000000,16390.000000,11.000000,-3.000000,-2.000000
3.184266,3.000000,9.000000,16386.000000,2.000000,9.000000,-19.000000
3.187337,4.000000,7.000000,16393.000000,12.000000,2.000000,-2.000000
3.188982,0.000000,10.000000,16382.000000,-19.000000,26.000000,4.000000
3.190502,3.000000,15.000000,16378.000000,4.000000,-7.000000,-11.000000
3.192397,-4.000000,5.000000,16388.000000,11.000000,-4.000000,-20.000000
3.193942,-17.000000,3.000000,16365.000000,-20.000000,-16.000000,-18.000000
3.195137,-6.000000,14.000000,16377.000000,7.000000,-13.000000,-11.000000
3.196032,11.000000,9.000000,16392.000000,3.000000,9.000000,2.000000
3.196753,-14.000000,12.000000,16377.000000,12.000000,-9.000000,-4.000000
3.197489,2.000000,0.000000,16381.000000,10.000000,-9.000000,13.000000
3.198059,-1.000000,5.000000,16387.000000,20.000000,7.000000,-1.000000
3.207000,-6.000000,14.000000,16392.000000,34.000000,-13.000000,-15.000000
3.292038,2.000000,1.000000,16398.000000,26.000000,9.000000,7.000000
3.295069,-10.000000,0.000000,16380.000000,-7.000000,12.000000,-3.000000
3.296933,-5.000000,-6.000000,16396.000000,-7.000000,-4.000000,-7.000000
3.297842,-12.000000,-2.000000,16390.000000,-14.000000,-6.000000,-5.000000
3.298523,-4.000000,7.000000,16399.000000,-7.000000,-6.000000,-7.000000
3.299083,-9.000000,-4.000000,16371.000000,13.000000,0.000000,-3.000000
3.300360,-8.000000,4.000000,16375.000000,-4.000000,9.000000,12.000000
3.301480,1.000000,-8.000000,16380.000000,-9.000000,-10.000000,-1.000000
3.303112,1.000000,4.000000,16361.000000,-7.000000,1.000000,-9.000000
3.304439,17.000000,4.000000,16388.000000,13.000000,-20.000000,-12.000000
3.316418,-1.000000,-6.000000,16365.000000,-7.000000,9.000000,2.000000
3.398191,-11.000000,7.000000,16355.000000,-4.000000,6.000000,-2.000000
3.400871,9.000000,7.000000,16384.000000,-10.000000,12.000000,-7.000000
3.401539,13.000000,-3.000000,16372.000000,-18.000000,-8.000000,-5.000000
3.402102,-6.000000,11.000000,16367.000000,-12.000000,14.000000,-3.000000
3.402597,-2.000000,1.000000,16390.000000,9.000000,4.000000,-15.000000
3.403143,-3.000000,22.000000,16384.000000,19.000000,-18.000000,-5.000000
3.403556,7.000000,7.000000,16395.000000,-18.000000,-5.000000,-16.000000
3.404108,-2.000000,-16.000000,16372.000000,-29.000000,0.000000,-28.000000
3.410014,5.000000,-8.000000,16377.000000,1.000000,1.000000,4.000000
3.412555,1.000000,2.000000,16378.000000,1.000000,-12.000000,3.000000
3.425047,-4.000000,3.000000,16386.000000,8.000000,-22.000000,13.000000
3.525423,-9.000000,-6.000000,16390.000000,18.000000,-2.000000,4.000000
3.528484,4.000000,4.000000,16365.000000,26.000000,6.000000,7.000000
3.530524,5.000000,-10.000000,16368.000000,0.000000,2.000000,2.000000
3.532373,-20.000000,-3.000000,16375.000000,-11.000000,25.000000,8.000000
3.534204,-15.000000,-12.000000,16363.000000,14.000000,18.000000,-11.000000
3.536461,12.000000,10.000000,16392.000000,14.000000,16.000000,-5.000000
3.539135,1.000000,3.000000,16374.000000,-7.000000,27.000000,-6.000000
3.540902,6.000000,9.000000,16381.000000,7.000000,3.000000,-3.000000
3.542683,-2.000000,12.000000,16381.000000,19.000000,-1.000000,10.000000
3.543488,-7.000000,8.000000,16364.000000,-2.000000,24.000000,-2.000000
3.544309,-11.000000,5.000000,16371.000000,18.000000,5.000000,-6.000000
3.549399,18.000000,-10.000000,16386.000000,18.000000,3.000000,-7.000000
3.550523,-4.000000,15.000000,16374.000000,3.000000,-17.000000,-11.000000
3.626785,-3.000000,4.000000,16404.000000,1.000000,6.000000,-1.000000
3.628534,10.000000,2.000000,16392.000000,24.000000,-5.000000,25.000000
3.629396,-2.000000,0.000000,16393.000000,6.000000,15.000000,6.000000
3.629964,2.000000,8.000000,16376.000000,-3.000000,-22.000000,0.000000
3.630549,2.000000,23.000000,16373.000000,14.000000,7.000000,-8.000000
3.631019,-10.000000,3.000000,16392.000000,11.000000,27.000000,-9.000000
3.631631,4.000000,-1.000000,16374.000000,5.000000,14.000000,-6.000000
3.632061,6.000000,1.000000,16382.000000,11.000000,-4.000000,-12.000000
3.643703,3.000000,9.000000,16395.000000,-11.000000,39.000000,-23.000000
3.659868,-3.000000,12.000000,16370.000000,5.000000,2.000000,-8.000000
3.660998,3.000000,8.000000,16382.000000,-25.000000,13.000000,-13.000000
3.738290,7.000000,2.000000,16394.000000,-20.000000,23.000000,11.000000
3.739842,4.000000,5.000000,16363.000000,8.000000,28.000000,8.000000
3.740584,5.000000,15.000000,16380.000000,11.000000,5.000000,8.000000
3.741144,1.000000,-1.000000,16391.000000,0.000000,1.000000,30.000000
3.741612,7.000000,-3.000000,16383.000000,22.000000,-3.000000,7.000000
3.742086,7.000000,6.000000,16397.000000,-17.000000,3.000000,26.000000
3.742511,-1.000000,5.000000,16391.000000,6.000000,-14.000000,25.000000
3.742905,3.000000,-12.000000,16381.000000,-15.000000,9.000000,3.000000
3.753583,7.000000,5.000000,16387.000000,-4.000000,-27.000000,-21.000000
3.768599,8.000000,7.000000,16379.000000,-13.000000,6.000000,4.000000
3.769503,2.000000,-9.000000,16396.000000,-4.000000,0.000000,7.000000
3.855150,4.000000,3.000000,16377.000000,29.000000,13.000000,19.000000
3.857734,0.000000,4.000000,16369.000000,12.000000,25.000000,22.000000
3.858458,-5.000000,10.000000,16362.000000,-11.000000,12.000000,1.000000
3.859047,2.000000,10.000000,16358.000000,2.000000,-1.000000,19.000000
3.859589,8.000000,-4.000000,16381.000000,14.000000,-2.000000,3.000000
3.860034,-7.000000,4.000000,16381.000000,10.000000,14.000000,-10.000000
3.860509,7.000000,6.000000,16389.000000,-1.000000,18.000000,0.000000
3.862685,17.000000,-11.000000,16383.000000,-18.000000,23.000000,-3.000000
3.865604,5.000000,-3.000000,16377.000000,7.000000,-16.000000,7.000000
3.878189,13.000000,14.000000,16384.000000,-1.000000,13.000000,-5.000000
3.880315,0.000000,14.000000,16394.000000,7.000000,1.000000,0.000000
3.969665,5.000000,-3.000000,16382.000000,10.000000,2.000000,1.000000
3.971900,-3.000000,-5.000000,16392.000000,-20.000000,-23.000000,7.000000
3.973062,2.000000,2.000000,16383.000000,6.000000,1.000000,3.000000
3.974457,12.000000,-7.000000,16387.000000,-8.000000,-12.000000,-14.000000
3.975176,4.000000,9.000000,16370.000000,3.000000,-2.000000,-7.000000
3.975744,-5.000000,14.000000,16381.000000,23.000000,5.000000,19.000000
3.976337,-6.000000,3.000000,16403.000000,-5.000000,-11.000000,8.000000
3.976854,-7.000000,3.000000,16381.000000,18.000000,-9.000000,8.000000
3.986995,0.000000,3.000000,16395.000000,18.000000,-9.000000,28.000000
3.988820,0.000000,15.000000,16371.000000,9.000000,-1.000000,25.000000
4.002494,2.000000,-5.000000,16359.000000,-20.000000,12.000000,-6.000000
4.003966,-7.000000,6.000000,16380.000000,0.000000,-9.000000,16.000000
4.075653,-4.000000,12.000000,16380.000000,6.000000,4.000000,12.000000
4.076919,0.000000,-2.000000,16387.000000,3.000000,9.000000,3.000000
4.077450,-7.000000,-9.000000,16371.000000,-4.000000,14.000000,-21.000000
4.077888,-7.000000,-1.000000,16398.000000,7.000000,-18.000000,3.000000
4.078332,5.000000,0.000000,16398.000000,-7.000000,-8.000000,1.000000
4.079423,1.000000,11.000000,16376.000000,-14.000000,-11.000000,-2.000000
4.080406,-1.000000,17.000000,16360.000000,2.000000,3.000000,-13.000000
4.081282,3.000000,7.000000,16376.000000,18.000000,-29.000000,-17.000000
4.095573,-1.000000,-4.000000,16391.000000,-8.000000,7.000000,-16.000000
4.110783,-3.000000,14.000000,16381.000000,12.000000,9.000000,9.000000
4.112020,4.000000,4.000000,16407.000000,-10.000000,4.000000,-11.000000
4.190339,2.000000,8.000000,16397.000000,21.000000,-14.000000,-6.000000
4.191662,-7.000000,0.000000,16367.000000,18.000000,-4.000000,11.000000
4.192178,0.000000,1.000000,16392.000000,16.000000,6.000000,1.000000
4.192652,9.000000,2.000000,16381.000000,4.000000,25.000000,-13.000000
4.193094,7.000000,6.000000,16377.000000,-14.000000,8.000000,-19.000000
4.193575,4.000000,5.000000,16388.000000,-10.000000,4.000000,-10.000000
4.194017,5.000000,-3.000000,16379.000000,17.000000,10.000000,-4.000000
4.194419,8.000000,-10.000000,16374.000000,26.000000,-18.000000,4.000000
4.205037,6.000000,2.000000,16370.000000,2.000000,-13.000000,-4.000000
4.219881,-2.000000,9.000000,16371.000000,-2.000000,4.000000,0.000000
4.220936,6.000000,7.000000,16393.000000,11.000000,22.000000,-5.000000
4.310145,-5.000000,-3.000000,16378.000000,-20.000000,0.000000,-13.000000
4.312916,4.000000,-10.000000,16389.000000,11.000000,0.000000,12.000000
4.314336,-2.000000,3.000000,16395.000000,29.000000,8.000000,4.000000
4.316130,1.000000,6.000000,16370.000000,0.000000,-1.000000,8.000000
4.317724,2.000000,-1.000000,16391.000000,-12.000000,-5.000000,12.000000
4.319126,11.000000,2.000000,16403.000000,6.000000,10.000000,20.000000
4.319933,1.000000,3.000000,16375.000000,19.000000,1.000000,16.000000
4.320566,0.000000,2.000000,16378.000000,8.000000,17.000000,9.000000
4.323112,4.000000,4.000000,16398.000000,27.000000,-3.000000,27.000000
4.329932,-2.000000,11.000000,16370.000000,12.000000,-9.000000,3.000000
4.331483,-8.000000,4.000000,16371.000000,-2.000000,-14.000000,-4.000000
4.345877,5.000000,6.000000,16376.000000,9.000000,3.000000,-12.000000
4.418987,9.000000,-1.000000,16383.000000,16.000000,5.000000,-17.000000
4.421697,-2.000000,9.000000,16379.000000,-4.000000,4.000000,4.000000
4.423641,7.000000,8.000000,16396.000000,11.000000,16.000000,17.000000
4.425593,1.000000,-3.000000,16386.000000,-10.000000,2.000000,20.000000
4.427746,4.000000,-6.000000,16378.000000,-7.000000,-8.000000,-6.000000
4.429726,2.000000,0.000000,16398.000000,-15.000000,12.000000,-10.000000
4.431145,1.000000,23.000000,16402.000000,4.000000,6.000000,2.000000
4.432625,1.000000,-5.000000,16383.000000,-29.000000,21.000000,0.000000
4.438331,-2.000000,-3.000000,16391.000000,2.000000,-16.000000,17.000000
4.439405,14.000000,-7.000000,16403.000000,6.000000,9.000000,-14.000000
4.453536,3.000000,8.000000,16371.000000,-20.000000,-11.000000,-4.000000
4.543367,-6.000000,-8.000000,16392.000000,2.000000,5.000000,-17.000000
4.547880,2.000000,-6.000000,16376.000000,-3.000000,12.000000,-5.000000
4.550049,11.000000,0.000000,16369.000000,8.000000,-8.000000,6.000000
4.552074,2.000000,23.000000,16369.000000,15.000000,1.000000,1.000000
4.554142,-9.000000,10.000000,16381.000000,-10.000000,6.000000,-22.000000
4.556163,-1.000000,2.000000,16380.000000,-6.000000,23.000000,-7.000000
4.558082,1.000000,0.000000,16386.000000,-2.000000,2.000000,-14.000000
4.559996,6.000000,-9.000000,16375.000000,37.000000,-6.000000,25.000000
4.562559,-5.000000,6.000000,16374.000000,19.000000,-18.000000,13.000000
4.565465,-2.000000,14.000000,16407.000000,2.000000,13.000000,-1.000000
4.567367,8.000000,-2.000000,16375.000000,-14.000000,4.000000,-5.000000
4.662418,-4.000000,-3.000000,16387.000000,-22.000000,-9.000000,-8.000000
4.665525,0.000000,1.000000,16387.000000,15.000000,3.000000,2.000000
4.666586,21.000000,-3.000000,16394.000000,-15.000000,-20.000000,-3.000000
4.667388,8.000000,2.000000,16389.000000,31.000000,3.000000,14.000000
4.667990,6.000000,6.000000,16379.000000,16.000000,4.000000,21.000000
4.668533,9.000000,-5.000000,16374.000000,35.000000,-11.000000,22.000000
4.669118,6.000000,1.000000,16379.000000,-3.000000,30.000000,8.000000
4.671203,0.000000,4.000000,16369.000000,28.000000,2.000000,26.000000
4.673051,2.000000,2.000000,16382.000000,16.000000,-11.000000,17.000000
4.674927,-4.000000,0.000000,16399.000000,2.000000,6.000000,28.000000
4.676560,-4.000000,-12.000000,16383.000000,-27.000000,8.000000,6.000000
4.685704,-5.000000,1.000000,16364.000000,6.000000,15.000000,12.000000
4.701440,1.000000,5.000000,16376.000000,13.000000,2.000000,1.000000
4.702580,-1.000000,3.000000,16390.000000,11.000000,-2.000000,2.000000
4.781538,6.000000,0.000000,16377.000000,-24.000000,-17.000000,-10.000000
4.784249,-2.000000,4.000000,16394.000000,16.000000,-7.000000,-11.000000
4.785641,8.000000,-4.000000,16363.000000,15.000000,-1.000000,-9.000000
4.786254,10.000000,-11.000000,16384.000000,31.000000,-36.000000,6.000000
4.786833,10.000000,0.000000,16377.000000,-2.000000,-8.000000,1.000000
4.787300,-7.000000,-5.000000,16380.000000,18.000000,-9.000000,16.000000
4.787830,3.000000,4.000000,16398.000000,-15.000000,6.000000,-3.000000
4.788262,-4.000000,12.000000,16365.000000,9.000000,-1.000000,14.000000
4.795353,5.000000,20.000000,16365.000000,14.000000,13.000000,5.000000
4.810421,-4.000000,9.000000,16373.000000,10.000000,-21.000000,-4.000000
4.812114,1.000000,-5.000000,16386.000000,-2.000000,-8.000000,-12.000000
4.891254,8.000000,-8.000000,16385.000000,18.000000,0.000000,0.000000
4.892716,-9.000000,6.000000,16368.000000,14.000000,17.000000,-24.000000
4.893298,-4.000000,5.000000,16365.000000,18.000000,12.000000,-9.000000
4.893712,4.000000,3.000000,16398.000000,-19.000000,-3.000000,-12.000000
4.894190,7.000000,-1.000000,16393.000000,16.000000,-16.000000,8.000000
4.894780,-1.000000,4.000000,16395.000000,4.000000,-2.000000,7.000000
4.895371,-9.000000,2.000000,16356.000000,10.000000,13.000000,6.000000
4.895851,-8.000000,-1.000000,16393.000000,4.000000,13.000000,-8.000000
4.906636,-8.000000,4.000000,16388.000000,14.000000,-1.000000,23.000000
4.922045,-4.000000,-2.000000,16376.000000,0.000000,-6.000000,7.000000
4.923443,-10.000000,-2.000000,16379.000000,-3.000000,2.000000,0.000000
5.025927,-7.000000,-1.000000,16376.000000,11.000000,-6.000000,18.000000
5.027127,5.000000,1.000000,16383.000000,27.000000,12.000000,11.000000
5.027669,-14.000000,-8.000000,16350.000000,7.000000,-5.000000,15.000000
5.028210,6.000000,3.000000,16375.000000,-12.000000,-31.000000,26.000000
5.028652,-11.000000,4.000000,16374.000000,6.000000,-3.000000,0.000000
5.029187,11.000000,15.000000,16375.000000,1.000000,8.000000,-1.000000
5.029853,0.000000,4.000000,16390.000000,1.000000,11.000000,21.000000
5.030482,-4.000000,0.000000,16379.000000,30.000000,11.000000,17.000000
5.031154,7.000000,4.000000,16406.000000,-4.000000,20.000000,-13.000000
5.031751,10.000000,1.000000,16390.000000,5.000000,12.000000,21.000000
5.032262,4.000000,12.000000,16397.000000,25.000000,-1.000000,0.000000
5.046438,4.000000,-1.000000,16386.000000,-12.000000,9.000000,19.000000
5.062381,-1.000000,10.000000,16371.000000,40.000000,6.000000,30.000000
5.063656,-1.000000,-1.000000,16383.000000,17.000000,-9.000000,17.000000
5.140629,4.000000,-4.000000,16384.000000,-5.000000,-10.000000,-5.000000
5.142283,11.000000,10.000000,16396.000000,13.000000,6.000000,7.000000
5.142904,-2.000000,-6.000000,16382.000000,9.000000,-5.000000,19.000000
5.143328,8.000000,2.000000,16399.000000,18.000000,1.000000,5.000000
5.143819,2.000000,4.000000,16416.000000,28.000000,3.000000,6.000000
5.144292,3.000000,-5.000000,16369.000000,3.000000,28.000000,20.000000
5.144898,2.000000,-3.000000,16384.000000,-10.000000,-2.000000,7.000000
5.145345,0.000000,6.000000,16385.000000,-8.000000,11.000000,4.000000
5.156596,1.000000,5.000000,16407.000000,14.000000,-19.000000,1.000000
5.171836,-3.000000,10.000000,16388.000000,-1.000000,2.000000,-12.000000
5.172767,4.000000,3.000000,16393.000000,14.000000,-19.000000,10.000000
5.259693,-6.000000,3.000000,16363.000000,0.000000,-6.000000,-10.000000
5.260906,-3.000000,-8.000000,16378.000000,-11.000000,-21.000000,9.000000
5.261552,1.000000,-3.000000,16392.000000,5.000000,-4.000000,12.000000
5.262050,0.000000,-4.000000,16390.000000,21.000000,16.000000,-7.000000
5.262579,12.000000,2.000000,16374.000000,4.000000,-4.000000,-9.000000
5.263591,14.000000,4.000000,16365.000000,0.000000,-3.000000,5.000000
5.264328,4.000000,7.000000,16366.000000,-10.000000,18.000000,-4.000000
5.264922,2.000000,6.000000,16380.000000,-7.000000,-2.000000,1.000000
5.266995,4.000000,4.000000,16379.000000,14.000000,-9.000000,17.000000
5.282424,8.000000,-5.000000,16360.000000,-10.000000,3.000000,-23.000000
5.283567,9.000000,15.000000,16375.000000,-13.000000,-10.000000,-16.000000
5.298582,6.000000,16.000000,16378.000000,-24.000000,-12.000000,-1.000000
5.299762,-2.000000,16.000000,16375.000000,14.000000,14.000000,6.000000
5.372166,0.000000,14.000000,16384.000000,-16.000000,24.000000,15.000000
5.373546,-13.000000,2.000000,16369.000000,5.000000,-1.000000,0.000000
5.374146,4.000000,1.000000,16388.000000,7.000000,4.000000,2.000000
5.374568,10.000000,5.000000,16383.000000,8.000000,6.000000,1.000000
5.375045,6.000000,4.000000,16379.000000,-10.000000,17.000000,-25.000000
5.375507,-1.000000,10.000000,16371.000000,-18.000000,7.000000,0.000000
5.376593,7.000000,6.000000,16380.000000,-15.000000,1.000000,0.000000
5.392603,-1.000000,13.000000,16376.000000,21.000000,-2.000000,16.000000
5.393624,1.000000,-12.000000,16372.000000,13.000000,-5.000000,20.000000
5.408112,-16.000000,-9.000000,16373.000000,29.000000,10.000000,-16.000000
5.409438,2.000000,-4.000000,16399.000000,10.000000,11.000000,-3.000000
5.491976,-4.000000,6.000000,16366.000000,18.000000,-5.000000,11.000000
5.493467,14.000000,-16.000000,16397.000000,4.000000,11.000000,6.000000
5.494143,-3.000000,7.000000,16373.000000,28.000000,-7.000000,11.000000
5.494634,0.000000,4.000000,16367.000000,-20.000000,2.000000,4.000000
5.496861,-5.000000,23.000000,16351.000000,-1.000000,-19.000000,1.000000
5.498707,-6.000000,4.000000,16376.000000,2.000000,-23.000000,13.000000
5.500453,6.000000,8.000000,16376.000000,-5.000000,2.000000,-25.000000
5.501927,-1.000000,0.000000,16372.000000,-9.000000,9.000000,-31.000000
5.503089,-13.000000,-8.000000,16359.000000,4.000000,-16.000000,-8.000000
5.517999,-11.000000,-3.000000,16392.000000,24.000000,-8.000000,3.000000
5.519165,1.000000,10.000000,16381.000000,21.000000,3.000000,-13.000000
5.596378,-8.000000,8.000000,16356.000000,-12.000000,3.000000,-3.000000
5.598432,9.000000,12.000000,16384.000000,18.000000,15.000000,6.000000
5.599067,7.000000,4.000000,16399.000000,13.000000,5.000000,1.000000
5.599638,3.000000,2.000000,16408.000000,7.000000,22.000000,-9.000000
5.600073,3.000000,11.000000,16397.000000,16.000000,-14.000000,5.000000
5.600605,2.000000,0.000000,16378.000000,20.000000,9.000000,14.000000
5.601124,0.000000,2.000000,16369.000000,-12.000000,2.000000,4.000000
5.611292,-3.000000,9.000000,16393.000000,1.000000,-2.000000,5.000000
5.613117,0.000000,4.000000,16373.000000,5.000000,4.000000,13.000000
5.627015,-5.000000,-5.000000,16394.000000,13.000000,22.000000,15.000000
5.705609,9.000000,2.000000,16360.000000,13.000000,1.000000,6.000000
5.707581,-3.000000,4.000000,16374.000000,5.000000,18.000000,-6.000000
5.708112,-4.000000,9.000000,16382.000000,-7.000000,32.000000,-3.000000
5.708657,3.000000,-5.000000,16371.000000,29.000000,2.000000,-10.000000
5.709113,-8.000000,-13.000000,16359.000000,-15.000000,-1.000000,-20.000000
5.709607,1.000000,2.000000,16383.000000,-19.000000,0.000000,-5.000000
5.710009,10.000000,-9.000000,16375.000000,5.000000,2.000000,-11.000000
5.710461,-3.000000,7.000000,16382.000000,12.000000,29.000000,-1.000000
5.720633,8.000000,2.000000,16364.000000,28.000000,8.000000,17.000000
5.722751,-8.000000,6.000000,16362.000000,2.000000,5.000000,-6.000000
5.743340,7.000000,6.000000,16382.000000,-10.000000,14.000000,-11.000000
5.883514,1.000000,2.000000,16390.000000,35.000000,-30.000000,2.000000
5.885241,-3.000000,-11.000000,16375.000000,19.000000,11.000000,17.000000
5.886074,0.000000,-4.000000,16384.000000,12.000000,35.000000,3.000000
5.886871,-4.000000,-3.000000,16371.000000,15.000000,-3.000000,18.000000
5.887538,-4.000000,8.000000,16370.000000,5.000000,20.000000,-2.000000
5.888002,7.000000,1.000000,16374.000000,7.000000,21.000000,0.000000
5.888565,-1.000000,-8.000000,16386.000000,26.000000,6.000000,13.000000
5.889032,6.000000,-2.000000,16382.000000,26.000000,-6.000000,-2.000000
5.889593,-1.000000,2.000000,16377.000000,15.000000,-1.000000,7.000000
5.891089,4.000000,-6.000000,16376.000000,4.000000,-6.000000,-9.000000
5.892108,1.000000,7.000000,16382.000000,-6.000000,6.000000,-9.000000
5.892949,-1.000000,15.000000,16379.000000,-15.000000,-11.000000,4.000000
5.893749,9.000000,-4.000000,16358.000000,-30.000000,-11.000000,-7.000000
5.894684,-1.000000,3.000000,16373.000000,-11.000000,-1.000000,-9.000000
5.895487,-8.000000,-5.000000,16369.000000,-11.000000,2.000000,2.000000
5.896339,5.000000,6.000000,16378.000000,-6.000000,5.000000,-2.000000
5.905841,-6.000000,3.000000,16402.000000,3.000000,-12.000000,11.000000
5.921389,9.000000,-4.000000,16385.000000,3.000000,-11.000000,0.000000
6.004310,6.000000,-2.000000,16386.000000,0.000000,-9.000000,-18.000000
6.005748,6.000000,4.000000,16369.000000,12.000000,3.000000,-11.000000
6.006398,-5.000000,-3.000000,16374.000000,-11.000000,17.000000,5.000000
6.006917,7.000000,15.000000,16383.000000,-3.000000,26.000000,4.000000
6.007426,1.000000,5.000000,16375.000000,-11.000000,24.000000,10.000000
6.007982,2.000000,4.000000,16377.000000,-3.000000,3.000000,0.000000
6.008455,-14.000000,-2.000000,16360.000000,3.000000,6.000000,-19.000000
6.008945,11.000000,5.000000,16381.000000,13.000000,4.000000,-21.000000
6.009428,-11.000000,1.000000,16392.000000,-5.000000,27.000000,-6.000000
6.013776,3.000000,1.000000,16378.000000,10.000000,-11.000000,3.000000
6.028889,1.000000,12.000000,16389.000000,10.000000,-14.000000,13.000000
6.030023,-7.000000,-9.000000,16370.000000,15.000000,8.000000,26.000000
6.043995,3.000000,-2.000000,16383.000000,-2.000000,-6.000000,26.000000
6.123772,-11.000000,1.000000,16388.000000,9.000000,3.000000,13.000000
6.125037,-1.000000,11.000000,16363.000000,5.000000,-7.000000,10.000000
6.125546,1.000000,6.000000,16384.000000,-20.000000,0.000000,7.000000
6.126094,0.000000,6.000000,16384.000000,-10.000000,29.000000,8.000000
6.126531,4.000000,-1.000000,16384.000000,7.000000,1.000000,20.000000
6.127059,8.000000,-2.000000,16383.000000,-1.000000,-16.000000,13.000000
6.127498,1.000000,26.000000,16359.000000,-5.000000,32.000000,3.000000
6.128016,0.000000,13.000000,16368.000000,1.000000,1.000000,-5.000000
6.137064,-2.000000,3.000000,16377.000000,-24.000000,7.000000,-30.000000
6.152562,0.000000,5.000000,16388.000000,2.000000,20.000000,17.000000
6.153803,-11.000000,7.000000,16390.000000,8.000000,20.000000,12.000000
6.257236,-13.000000,1.000000,16379.000000,10.000000,-8.000000,26.000000
6.259081,-5.000000,12.000000,16372.000000,-18.000000,13.000000,32.000000
6.260345,-8.000000,13.000000,16382.000000,2.000000,14.000000,-2.000000
6.262091,-4.000000,11.000000,16378.000000,11.000000,10.000000,-9.000000
6.263245,-13.000000,-5.000000,16367.000000,18.000000,1.000000,-14.000000
6.264422,-5.000000,-1.000000,16391.000000,4.000000,-3.000000,6.000000
6.265254,7.000000,3.000000,16399.000000,13.000000,-3.000000,16.000000
6.266273,6.000000,-5.000000,16386.000000,2.000000,-10.000000,-4.000000
6.267254,8.000000,4.000000,16391.000000,13.000000,-19.000000,3.000000
6.267913,4.000000,7.000000,16377.000000,0.000000,9.000000,-1.000000
6.268800,-2.000000,7.000000,16402.000000,1.000000,2.000000,-5.000000
6.275638,-3.000000,11.000000,16389.000000,7.000000,-10.000000,-9.000000
6.291519,-2.000000,6.000000,16396.000000,-21.000000,-20.000000,-10.000000
6.292640,-5.000000,-2.000000,16391.000000,-25.000000,-4.000000,-19.000000
6.391460,7.000000,-6.000000,16385.000000,-6.000000,4.000000,-18.000000
6.393368,-2.000000,-9.000000,16395.000000,15.000000,0.000000,-5.000000
6.394115,7.000000,-4.000000,16373.000000,10.000000,3.000000,5.000000
6.395215,-1.000000,5.000000,16377.000000,-6.000000,22.000000,-32.000000
6.396610,-7.000000,9.000000,16365.000000,12.000000,-14.000000,-17.000000
6.398245,-3.000000,1.000000,16400.000000,5.000000,2.000000,-32.000000
6.401831,2.000000,2.000000,16372.000000,22.000000,-4.000000,6.000000
6.403690,1.000000,-6.000000,16380.000000,15.000000,2.000000,5.000000
6.404604,-9.000000,4.000000,16378.000000,16.000000,12.000000,4.000000
6.405768,2.000000,-7.000000,16376.000000,-8.000000,14.000000,-9.000000
6.406915,3.000000,5.000000,16364.000000,7.000000,19.000000,-20.000000
6.415547,-14.000000,-8.000000,16394.000000,-4.000000,6.000000,2.000000
6.506672,-9.000000,-1.000000,16397.000000,14.000000,12.000000,6.000000
6.510357,-5.000000,8.000000,16359.000000,-16.000000,11.000000,-8.000000
6.512030,-6.000000,17.000000,16365.000000,0.000000,19.000000,6.000000
6.513560,5.000000,-6.000000,16378.000000,30.000000,-4.000000,0.000000
6.514882,5.000000,-11.000000,16379.000000,7.000000,8.000000,-12.000000
6.515787,3.000000,4.000000,16406.000000,8.000000,2.000000,-5.000000
6.516580,5.000000,4.000000,16375.000000,5.000000,-1.000000,5.000000
6.518890,-3.000000,10.000000,16387.000000,5.000000,-17.000000,5.000000
6.520357,-9.000000,-15.000000,16369.000000,-8.000000,18.000000,18.000000
6.522266,-7.000000,1.000000,16387.000000,17.000000,14.000000,-7.000000
6.525644,7.000000,2.000000,16397.000000,-8.000000,-12.000000,-20.000000
6.540642,-5.000000,11.000000,16409.000000,-2.000000,35.000000,-5.000000
6.541735,-15.000000,-9.000000,16385.000000,10.000000,-3.000000,14.000000
6.621309,5.000000,8.000000,16389.000000,21.000000,13.000000,4.000000
6.625093,3.000000,-2.000000,16391.000000,5.000000,13.000000,2.000000
6.627133,8.000000,-6.000000,16398.000000,-2.000000,-3.000000,-9.000000
6.628702,8.000000,-5.000000,16365.000000,24.000000,5.000000,3.000000
6.629774,-14.000000,-6.000000,16388.000000,8.000000,15.000000,2.000000
6.630433,3.000000,0.000000,16383.000000,-2.000000,-13.000000,8.000000
6.631090,-6.000000,3.000000,16398.000000,23.000000,-8.000000,12.000000
6.631671,3.000000,-17.000000,16400.000000,-7.000000,13.000000,-1.000000
6.636336,1.000000,-11.000000,16394.000000,10.000000,11.000000,7.000000
6.650745,5.000000,-4.000000,16391.000000,6.000000,1.000000,-11.000000
6.651734,9.000000,0.000000,16392.000000,12.000000,5.000000,-14.000000
6.737177,11.000000,2.000000,16374.000000,4.000000,16.000000,5.000000
6.740438,0.000000,0.000000,16403.000000,-34.000000,9.000000,-29.000000
6.741800,4.000000,3.000000,16405.000000,1.000000,-3.000000,-29.000000
6.743237,-13.000000,8.000000,16374.000000,9.000000,-24.000000,-22.000000
6.745100,5.000000,1.000000,16398.000000,3.000000,-1.000000,-6.000000
6.746791,-7.000000,6.000000,16377.000000,10.000000,-2.000000,-4.000000
6.747970,-14.000000,-13.000000,16395.000000,-8.000000,-12.000000,-2.000000
6.748620,6.000000,8.000000,16395.000000,6.000000,-13.000000,8.000000
6.749239,1.000000,13.000000,16379.000000,-1.000000,-1.000000,8.000000
6.759883,-3.000000,2.000000,16413.000000,22.000000,3.000000,16.000000
6.761266,1.000000,5.000000,16391.000000,-1.000000,4.000000,10.000000
6.840517,7.000000,-1.000000,16367.000000,33.000000,20.000000,-5.000000
6.841772,3.000000,-1.000000,16387.000000,-1.000000,-20.000000,-2.000000
6.842311,10.000000,17.000000,16376.000000,-10.000000,5.000000,13.000000
6.842763,-3.000000,2.000000,16395.000000,19.000000,5.000000,30.000000
6.843161,-5.000000,-3.000000,16412.000000,11.000000,4.000000,3.000000
6.843657,-8.000000,6.000000,16391.000000,10.000000,-15.000000,-14.000000
6.844099,-2.000000,6.000000,16398.000000,27.000000,11.000000,7.000000
6.844633,4.000000,2.000000,16372.000000,41.000000,10.000000,5.000000
6.854653,7.000000,1.000000,16389.000000,27.000000,-6.000000,13.000000
6.869690,-2.000000,13.000000,16384.000000,13.000000,-19.000000,19.000000
6.870762,-8.000000,14.000000,16371.000000,1.000000,5.000000,-17.000000
6.957530,2.000000,5.000000,16394.000000,-13.000000,9.000000,-15.000000
6.961183,-8.000000,0.000000,16378.000000,-16.000000,19.000000,-5.000000
6.963278,-8.000000,-4.000000,16403.000000,-12.000000,-16.000000,5.000000
6.965167,1.000000,12.000000,16377.000000,-10.000000,-7.000000,-8.000000
6.966953,-1.000000,-3.000000,16394.000000,4.000000,-5.000000,15.000000
6.967791,6.000000,-6.000000,16386.000000,-1.000000,-4.000000,10.000000
6.970077,-5.000000,3.000000,16368.000000,-4.000000,-12.000000,6.000000
6.971884,0.000000,14.000000,16392.000000,-7.000000,-8.000000,-12.000000
6.972719,9.000000,3.000000,16401.000000,13.000000,7.000000,-6.000000
6.977902,-4.000000,-12.000000,16395.000000,5.000000,21.000000,-9.000000
6.985100,-6.000000,4.000000,16390.000000,14.000000,13.000000,6.000000
6.993060,2.000000,-13.000000,16400.000000,10.000000,0.000000,-4.000000
7.064506,-8.000000,3.000000,16382.000000,-1.000000,-14.000000,21.000000
7.066301,3.000000,5.000000,16393.000000,-12.000000,16.000000,-14.000000
7.067141,-3.000000,14.000000,16361.000000,-17.000000,23.000000,1.000000
7.067659,2.000000,8.000000,16390.000000,-17.000000,12.000000,-1.000000
7.068146,-6.000000,6.000000,16398.000000,-9.000000,-1.000000,-16.000000
7.068581,-4.000000,-7.000000,16381.000000,0.000000,-5.000000,5.000000
7.072823,-5.000000,16.000000,16385.000000,18.000000,-6.000000,27.000000
7.073758,20.000000,11.000000,16373.000000,17.000000,-1.000000,6.000000
7.087634,-8.000000,-9.000000,16392.000000,14.000000,4.000000,24.000000
7.104387,-13.000000,-10.000000,16407.000000,-1.000000,-6.000000,10.000000
7.105407,-16.000000,-7.000000,16396.000000,19.000000,-3.000000,3.000000
7.173750,10.000000,10.000000,16390.000000,21.000000,-25.000000,3.000000
7.174926,4.000000,6.000000,16400.000000,9.000000,-2.000000,-3.000000
7.175393,19.000000,4.000000,16389.000000,12.000000,12.000000,-4.000000
7.175899,-3.000000,7.000000,16392.000000,3.000000,-5.000000,-13.000000
7.176308,3.000000,13.000000,16379.000000,4.000000,-11.000000,-1.000000
7.176791,-4.000000,11.000000,16386.000000,-8.000000,2.000000,14.000000
7.183571,-7.000000,22.000000,16372.000000,7.000000,-16.000000,0.000000
7.185232,-5.000000,4.000000,16372.000000,7.000000,-21.000000,-5.000000
7.199563,-2.000000,-6.000000,16386.000000,-13.000000,6.000000,-17.000000
7.203757,-8.000000,8.000000,16395.000000,-22.000000,4.000000,3.000000
7.215116,6.000000,-3.000000,16380.000000,-9.000000,-1.000000,3.000000
7.290814,6.000000,-2.000000,16367.000000,25.000000,1.000000,3.000000
7.293696,4.000000,-3.000000,16385.000000,12.000000,-2.000000,9.000000
7.295509,-6.000000,-6.000000,16406.000000,1.000000,11.000000,13.000000
7.297239,3.000000,-4.000000,16391.000000,7.000000,2.000000,-7.000000
7.298394,2.000000,10.000000,16400.000000,7.000000,-9.000000,18.000000
7.299965,-1.000000,7.000000,16378.000000,1.000000,-15.000000,14.000000
7.302116,-5.000000,-3.000000,16385.000000,19.000000,-6.000000,12.000000
7.303934,-4.000000,-8.000000,16394.000000,8.000000,11.000000,1.000000
7.306464,4.000000,0.000000,16388.000000,-6.000000,15.000000,10.000000
7.321561,-7.000000,7.000000,16384.000000,10.000000,-2.000000,9.000000
7.322632,12.000000,-1.000000,16387.000000,0.000000,16.000000,7.000000
7.403513,-6.000000,-3.000000,16392.000000,11.000000,5.000000,1.000000
7.406602,-13.000000,7.000000,16384.000000,-2.000000,-8.000000,-4.000000
7.408775,-7.000000,0.000000,16399.000000,6.000000,10.000000,-6.000000
7.410903,-2.000000,12.000000,16381.000000,-7.000000,7.000000,0.000000
7.413524,-10.000000,7.000000,16384.000000,-7.000000,-5.000000,-4.000000
7.415275,-2.000000,-2.000000,16384.000000,-23.000000,-4.000000,-6.000000
7.416496,-3.000000,13.000000,16398.000000,-24.000000,-9.000000,8.000000
7.417787,-8.000000,12.000000,16378.000000,-14.000000,-18.000000,13.000000
7.419750,2.000000,12.000000,16393.000000,13.000000,-6.000000,-7.000000
7.430277,-4.000000,13.000000,16385.000000,9.000000,20.000000,-22.000000
7.431508,8.000000,7.000000,16388.000000,3.000000,-3.000000,-10.000000
7.512849,7.000000,-12.000000,16381.000000,15.000000,-23.000000,7.000000
7.514515,13.000000,3.000000,16367.000000,3.000000,6.000000,-11.000000
7.515429,8.000000,14.000000,16396.000000,-15.000000,14.000000,1.000000
7.516771,3.000000,1.000000,16393.000000,-5.000000,22.000000,-12.000000
7.518454,-3.000000,10.000000,16373.000000,-15.000000,5.000000,-22.000000
7.519197,11.000000,15.000000,16388.000000,10.000000,14.000000,-7.000000
7.519830,-4.000000,6.000000,16384.000000,36.000000,-2.000000,16.000000
7.523231,4.000000,0.000000,16387.000000,5.000000,19.000000,1.000000
7.525142,-10.000000,-8.000000,16405.000000,-31.000000,10.000000,18.000000
7.538693,-7.000000,-6.000000,16396.000000,-235.000000,6.000000,22.000000
7.539893,-7.000000,-17.000000,16391.000000,3.000000,11.000000,-9.000000
7.622667,1.000000,19.000000,16388.000000,18.000000,-3.000000,5.000000
7.624027,-6.000000,3.000000,16389.000000,-15.000000,14.000000,-8.000000
7.624570,0.000000,-4.000000,16384.000000,-12.000000,15.000000,-9.000000
7.625024,3.000000,18.000000,16402.000000,12.000000,-1.000000,-4.000000
7.625616,5.000000,19.000000,16382.000000,-11.000000,30.000000,12.000000
7.626310,5.000000,6.000000,16384.000000,8.000000,14.000000,2.000000
7.626909,-4.000000,9.000000,16396.000000,-26.000000,-11.000000,-16.000000
7.632648,-2.000000,10.000000,16386.000000,20.000000,1.000000,-27.000000
7.634362,2.000000,-4.000000,16390.000000,-10.000000,9.000000,-19.000000
7.648459,4.000000,15.000000,16387.000000,-20.000000,-39.000000,-9.000000
7.649650,1.000000,4.000000,16388.000000,-7.000000,-16.000000,1.000000
7.745487,13.000000,5.000000,16395.000000,2.000000,5.000000,4.000000
7.749877,4.000000,2.000000,16402.000000,-7.000000,-8.000000,10.000000
7.752144,-3.000000,13.000000,16388.000000,-9.000000,1.000000,0.000000
7.753855,-4.000000,1.000000,16379.000000,-14.000000,5.000000,-17.000000
7.755743,-5.000000,16.000000,16406.000000,-4.000000,-10.000000,12.000000
7.756955,0.000000,11.000000,16394.000000,-17.000000,-4.000000,7.000000
7.758382,-10.000000,2.000000,16389.000000,23.000000,5.000000,-1.000000
7.759856,-5.000000,-7.000000,16382.000000,14.000000,17.000000,1.000000
7.761866,0.000000,1.000000,16395.000000,22.000000,-12.000000,-14.000000
7.763051,2.000000,3.000000,16395.000000,-33.000000,9.000000,-2.000000
7.763989,-3.000000,18.000000,16362.000000,-21.000000,-21.000000,-4.000000
7.774737,-5.000000,-7.000000,16382.000000,-4.000000,-13.000000,-10.000000
7.859177,3.000000,4.000000,16387.000000,12.000000,2.000000,12.000000
7.860688,1.000000,-1.000000,16383.000000,-20.000000,7.000000,-17.000000
7.861377,0.000000,4.000000,16397.000000,3.000000,-6.000000,-8.000000
7.862196,-5.000000,6.000000,16380.000000,0.000000,-1.000000,3.000000
7.862914,4.000000,8.000000,16397.000000,-10.000000,-5.000000,16.000000
7.863680,-7.000000,4.000000,16404.000000,-9.000000,-22.000000,8.000000
7.864226,-11.000000,11.000000,16405.000000,16.000000,-18.000000,4.000000
7.864789,2.000000,-1.000000,16395.000000,-3.000000,13.000000,-6.000000
7.869213,1.000000,4.000000,16382.000000,35.000000,-12.000000,-4.000000
7.871369,-3.000000,11.000000,16378.000000,5.000000,-23.000000,-2.000000
7.885030,13.000000,-3.000000,16370.000000,-7.000000,5.000000,18.000000
7.900017,0.000000,11.000000,16385.000000,-9.000000,15.000000,-13.000000
7.995763,-8.000000,9.000000,16372.000000,4.000000,-6.000000,-6.000000
7.999520,-3.000000,13.000000,16391.000000,-17.000000,10.000000,-12.000000
8.001327,13.000000,-4.000000,16374.000000,-7.000000,12.000000,-7.000000
8.003283,6.000000,4.000000,16369.000000,-2.000000,2.000000,-23.000000
8.005231,2.000000,-2.000000,16396.000000,-1.000000,-1.000000,0.000000
8.007124,3.000000,0.000000,16397.000000,0.000000,-1.000000,0.000000
8.009051,2.000000,-8.000000,16384.000000,-8.000000,-13.000000,9.000000
8.010793,0.000000,9.000000,16381.000000,3.000000,-24.000000,2.000000
8.012966,-10.000000,0.000000,16387.000000,27.000000,-26.000000,7.000000
8.014809,5.000000,2.000000,16399.000000,23.000000,0.000000,-4.000000
8.017044,-8.000000,-8.000000,16384.000000,24.000000,-38.000000,13.000000
8.020131,2.000000,17.000000,16379.000000,-9.000000,3.000000,-7.000000
8.023828,1.000000,-3.000000,16374.000000,7.000000,0.000000,-13.000000
8.117271,-7.000000,15.000000,16376.000000,13.000000,-17.000000,7.000000
8.119466,-10.000000,4.000000,16364.000000,-11.000000,-5.000000,-10.000000
8.120125,-2.000000,1.000000,16388.000000,-13.000000,-9.000000,-4.000000
8.121124,-1.000000,11.000000,16382.000000,3.000000,-4.000000,-2.000000
8.122651,-4.000000,6.000000,16378.000000,-2.000000,26.000000,13.000000
8.124098,-5.000000,3.000000,16392.000000,14.000000,-5.000000,19.000000
8.125118,-2.000000,-10.000000,16366.000000,-8.000000,-8.000000,2.000000
8.125946,-1.000000,5.000000,16395.000000,-8.000000,-4.000000,-10.000000
8.127545,0.000000,2.000000,16395.000000,-25.000000,1.000000,-14.000000
8.129937,1.000000,13.000000,16401.000000,-15.000000,2.000000,-2.000000
8.134408,-6.000000,12.000000,16376.000000,12.000000,5.000000,27.000000
8.149840,9.000000,-13.000000,16389.000000,6.000000,15.000000,10.000000
8.150877,3.000000,-1.000000,16378.000000,-16.000000,-5.000000,-17.000000
8.233301,1.000000,-1.000000,16387.000000,-25.000000,11.000000,-4.000000
8.236219,3.000000,0.000000,16386.000000,-4.000000,2.000000,11.000000
8.237717,3.000000,1.000000,16375.000000,28.000000,-5.000000,-10.000000
8.239211,2.000000,9.000000,16385.000000,15.000000,-3.000000,-12.000000
8.240692,1.000000,1.000000,16413.000000,9.000000,-27.000000,-10.000000
8.242257,-4.000000,-10.000000,16396.000000,-16.000000,-8.000000,-6.000000
8.243024,1.000000,4.000000,16396.000000,-4.000000,15.000000,-9.000000
8.245360,15.000000,-1.000000,16408.000000,2.000000,-13.000000,8.000000
8.246544,4.000000,8.000000,16387.000000,-7.000000,-7.000000,-30.000000
8.259023,-12.000000,9.000000,16366.000000,7.000000,-23.000000,-22.000000
8.260469,-3.000000,1.000000,16392.000000,-13.000000,2.000000,8.000000
8.354745,-12.000000,0.000000,16397.000000,8.000000,30.000000,2.000000
8.357800,-3.000000,19.000000,16377.000000,238.000000,-3.000000,-7.000000
8.359348,-3.000000,1.000000,16389.000000,6.000000,27.000000,-19.000000
8.360951,8.000000,2.000000,16402.000000,-16.000000,16.000000,-23.000000
8.362877,5.000000,-9.000000,16363.000000,4.000000,10.000000,-4.000000
8.364818,1.000000,5.000000,16390.000000,11.000000,-2.000000,-13.000000
8.366293,22.000000,-6.000000,16394.000000,-6.000000,12.000000,-15.000000
8.368480,7.000000,-4.000000,16384.000000,14.000000,-5.000000,5.000000
8.369248,6.000000,6.000000,16401.000000,3.000000,4.000000,-5.000000
8.369980,-9.000000,0.000000,16403.000000,19.000000,-1.000000,8.000000
8.370785,1.000000,2.000000,16401.000000,-9.000000,7.000000,14.000000
8.384285,5.000000,-9.000000,16374.000000,-1.000000,5.000000,-3.000000
8.459193,2.000000,6.000000,16392.000000,-5.000000,-4.000000,-2.000000
8.460388,7.000000,3.000000,16394.000000,14.000000,4.000000,36.000000
8.461102,4.000000,13.000000,16399.000000,8.000000,5.000000,15.000000
8.461945,-1.000000,-4.000000,16384.000000,-4.000000,-11.000000,-1.000000
8.463529,2.000000,-3.000000,16397.000000,2.000000,8.000000,-17.000000
8.464977,-9.000000,13.000000,16360.000000,7.000000,6.000000,2.000000
8.466456,-4.000000,-4.000000,16379.000000,1.000000,-2.000000,-1.000000
8.467729,-5.000000,1.000000,16395.000000,2.000000,-2.000000,7.000000
8.477425,-5.000000,9.000000,16379.000000,-11.000000,-11.000000,6.000000
8.493033,0.000000,9.000000,16372.000000,18.000000,17.000000,15.000000
8.494182,-4.000000,-3.000000,16399.000000,19.000000,12.000000,7.000000
8.585902,9.000000,1.000000,16399.000000,38.000000,-22.000000,9.000000
8.587993,-8.000000,-4.000000,16413.000000,8.000000,-19.000000,-8.000000
8.588626,1.000000,0.000000,16386.000000,-5.000000,-20.000000,-20.000000
8.589165,-10.000000,-15.000000,16394.000000,-25.000000,6.000000,-2.000000
8.589592,1.000000,6.000000,16391.000000,-12.000000,-8.000000,-7.000000
8.590113,4.000000,8.000000,16396.000000,-9.000000,4.000000,-4.000000
8.590611,-3.000000,5.000000,16375.000000,19.000000,-1.000000,-7.000000
8.591143,1.000000,-6.000000,16403.000000,-7.000000,15.000000,10.000000
8.591710,3.000000,15.000000,16375.000000,7.000000,-16.000000,-1.000000
8.602560,2.000000,4.000000,16394.000000,-4.000000,7.000000,10.000000
8.603853,8.000000,7.000000,16407.000000,17.000000,-7.000000,36.000000
8.617617,3.000000,-3.000000,16395.000000,15.000000,0.000000,-8.000000
8.706124,-2.000000,0.000000,16400.000000,17.000000,11.000000,-14.000000
8.709162,-11.000000,6.000000,16400.000000,-14.000000,16.000000,-3.000000
8.709900,-3.000000,5.000000,16398.000000,15.000000,1.000000,5.000000
8.712481,12.000000,10.000000,16371.000000,-5.000000,3.000000,-15.000000
8.713466,-8.000000,8.000000,16382.000000,-20.000000,0.000000,11.000000
8.714136,-6.000000,10.000000,16388.000000,-9.000000,0.000000,24.000000
8.715078,-7.000000,8.000000,16390.000000,-8.000000,19.000000,3.000000
8.716327,-3.000000,2.000000,16403.000000,-28.000000,-9.000000,-9.000000
8.717492,4.000000,-8.000000,16379.000000,-5.000000,-35.000000,-1.000000
8.718367,-2.000000,25.000000,16371.000000,-31.000000,-11.000000,-14.000000
8.726762,0.000000,16.000000,16406.000000,-4.000000,3.000000,8.000000
8.742422,-3.000000,-5.000000,16378.000000,-4.000000,-1.000000,4.000000
8.816614,6.000000,-7.000000,16375.000000,-2.000000,-27.000000,10.000000
8.820338,3.000000,8.000000,16388.000000,-18.000000,-15.000000,-7.000000
8.822645,-8.000000,-4.000000,16380.000000,21.000000,1.000000,-4.000000
8.824699,0.000000,5.000000,16404.000000,-9.000000,-2.000000,4.000000
8.826319,-1.000000,-1.000000,16398.000000,-18.000000,-3.000000,3.000000
8.827768,3.000000,1.000000,16391.000000,2.000000,21.000000,-9.000000
8.829866,-8.000000,2.000000,16391.000000,14.000000,-8.000000,12.000000
8.830869,1.000000,7.000000,16376.000000,-2.000000,-13.000000,6.000000
8.831618,-3.000000,-5.000000,16388.000000,10.000000,-18.000000,20.000000
8.838332,-2.000000,13.000000,16384.000000,-12.000000,-31.000000,10.000000
8.839325,-10.000000,6.000000,16373.000000,16.000000,-8.000000,4.000000
8.854395,-2.000000,-1.000000,16398.000000,7.000000,-1.000000,-11.000000
8.922871,2.000000,-4.000000,16384.000000,-25.000000,-2.000000,-7.000000
8.924103,0.000000,-6.000000,16387.000000,-26.000000,-8.000000,10.000000
8.924607,-15.000000,8.000000,16402.000000,-1.000000,12.000000,-3.000000
8.925108,-4.000000,0.000000,16418.000000,-5.000000,5.000000,3.000000
8.925703,12.000000,-2.000000,16378.000000,7.000000,-1.000000,15.000000
8.926374,-2.000000,8.000000,16399.000000,-7.000000,4.000000,6.000000
8.931693,1.000000,3.000000,16385.000000,-1.000000,19.000000,3.000000
8.933250,5.000000,7.000000,16397.000000,-19.000000,-16.000000,-9.000000
8.946827,2.000000,2.000000,16406.000000,-11.000000,7.000000,16.000000
8.961830,-5.000000,1.000000,16405.000000,-8.000000,-24.000000,5.000000
8.963330,-6.000000,3.000000,16396.000000,4.000000,2.000000,-6.000000
9.033464,4.000000,7.000000,16392.000000,2.000000,1.000000,10.000000
9.036270,11.000000,8.000000,16410.000000,0.000000,8.000000,6.000000
9.037655,5.000000,-11.000000,16390.000000,-9.000000,21.000000,11.000000
9.039387,-12.000000,0.000000,16383.000000,-2.000000,7.000000,17.000000
9.040100,-2.000000,12.000000,16391.000000,-18.000000,-11.000000,-9.000000
9.040721,-9.000000,1.000000,16403.000000,3.000000,22.000000,-9.000000
9.041383,5.000000,5.000000,16372.000000,6.000000,14.000000,-11.000000
9.041879,-4.000000,5.000000,16404.000000,19.000000,-10.000000,-7.000000
9.054845,-1.000000,0.000000,16397.000000,-5.000000,20.000000,7.000000
9.070875,-10.000000,0.000000,16389.000000,-1.000000,8.000000,-17.000000
9.071961,-5.000000,14.000000,16381.000000,-23.000000,10.000000,-8.000000
9.149872,6.000000,-8.000000,16380.000000,-16.000000,-6.000000,14.000000
9.152874,11.000000,0.000000,16380.000000,19.000000,-19.000000,19.000000
9.154683,-8.000000,-5.000000,16408.000000,-9.000000,11.000000,-1.000000
9.155785,1.000000,5.000000,16380.000000,-10.000000,-9.000000,-14.000000
9.158414,2.000000,9.000000,16396.000000,22.000000,-23.000000,-3.000000
9.160685,11.000000,-2.000000,16396.000000,16.000000,-21.000000,-13.000000
9.163330,13.000000,-9.000000,16368.000000,19.000000,-26.000000,-9.000000
9.165332,-4.000000,-8.000000,16412.000000,-21.000000,-2.000000,7.000000
9.167308,9.000000,8.000000,16392.000000,16.000000,2.000000,15.000000
9.181416,8.000000,-1.000000,16389.000000,-5.000000,1.000000,-11.000000
9.182484,-5.000000,7.000000,16399.000000,-10.000000,11.000000,-25.000000
9.265041,4.000000,-7.000000,16401.000000,-9.000000,6.000000,1.000000
9.266936,-2.000000,-15.000000,16389.000000,14.000000,5.000000,4.000000
9.267536,1.000000,-2.000000,16395.000000,-28.000000,29.000000,9.000000
9.268072,-8.000000,5.000000,16380.000000,11.000000,26.000000,12.000000
9.268507,2.000000,5.000000,16382.000000,8.000000,28.000000,12.000000
9.269010,-9.000000,5.000000,16394.000000,8.000000,-4.000000,1.000000
9.269435,-4.000000,8.000000,16408.000000,0.000000,-1.000000,-2.000000
9.271067,3.000000,2.000000,16406.000000,25.000000,4.000000,-2.000000
9.274447,8.000000,-10.000000,16393.000000,6.000000,3.000000,11.000000
9.290064,-3.000000,7.000000,16392.000000,29.000000,2.000000,24.000000
9.291366,1.000000,-5.000000,16384.000000,-13.000000,8.000000,-2.000000
9.305084,0.000000,-1.000000,16374.000000,12.000000,-3.000000,-7.000000
9.373872,-19.000000,-6.000000,16396.000000,-12.000000,14.000000,0.000000
9.375023,-10.000000,-1.000000,16389.000000,-13.000000,15.000000,6.000000
9.375659,0.000000,0.000000,16380.000000,-14.000000,-2.000000,-16.000000
9.376342,9.000000,7.000000,16404.000000,-10.000000,-1.000000,-15.000000
9.377060,-9.000000,-5.000000,16412.000000,-13.000000,-8.000000,-17.000000
9.377553,2.000000,-4.000000,16382.000000,-12.000000,21.000000,-5.000000
9.378109,-7.000000,9.000000,16398.000000,-16.000000,15.000000,-1.000000
9.384025,-4.000000,9.000000,16378.000000,-3.000000,15.000000,-5.000000
9.400249,0.000000,-1.000000,16372.000000,-9.000000,7.000000,-10.000000
9.401474,-9.000000,6.000000,16396.000000,-11.000000,-3.000000,-20.000000
9.487575,0.000000,-7.000000,16403.000000,-12.000000,-14.000000,-21.000000
9.490384,4.000000,8.000000,16410.000000,11.000000,14.000000,4.000000
9.492099,-6.000000,-9.000000,16387.000000,18.000000,-10.000000,-10.000000
9.493967,2.000000,18.000000,16381.000000,-13.000000,0.000000,-17.000000
9.496251,-1.000000,5.000000,16396.000000,-15.000000,3.000000,0.000000
9.497934,-6.000000,-8.000000,16400.000000,-7.000000,-14.000000,-15.000000
9.499513,11.000000,9.000000,16400.000000,0.000000,-22.000000,1.000000
9.501092,-2.000000,8.000000,16407.000000,-9.000000,25.000000,15.000000
9.502205,-3.000000,9.000000,16390.000000,5.000000,-8.000000,8.000000
9.510404,5.000000,6.000000,16384.000000,22.000000,-12.000000,18.000000
9.512699,7.000000,-2.000000,16397.000000,-3.000000,1.000000,14.000000
9.603698,-11.000000,0.000000,16366.000000,-1.000000,3.000000,13.000000
9.607193,0.000000,-8.000000,16400.000000,-18.000000,0.000000,-9.000000
9.608936,3.000000,-4.000000,16396.000000,8.000000,23.000000,-1.000000
9.610707,-7.000000,3.000000,16378.000000,14.000000,-4.000000,12.000000
9.613040,-2.000000,3.000000,16396.000000,30.000000,-6.000000,5.000000
9.615118,-2.000000,-16.000000,16379.000000,-3.000000,3.000000,8.000000
9.617171,1.000000,7.000000,16389.000000,22.000000,14.000000,8.000000
9.619218,-1.000000,3.000000,16413.000000,9.000000,-6.000000,23.000000
9.621470,11.000000,11.000000,16374.000000,12.000000,1.000000,9.000000
9.623501,-2.000000,4.000000,16390.000000,31.000000,-11.000000,6.000000
9.625482,-8.000000,0.000000,16387.000000,19.000000,-13.000000,15.000000
9.635232,7.000000,-1.000000,16385.000000,-3.000000,-8.000000,-6.000000
9.723746,7.000000,2.000000,16401.000000,-1.000000,0.000000,-6.000000
9.725098,-5.000000,-4.000000,16392.000000,2.000000,-7.000000,18.000000
9.725803,1.000000,-7.000000,16398.000000,7.000000,-28.000000,18.000000
9.726399,9.000000,11.000000,16376.000000,8.000000,-9.000000,3.000000
9.726908,-3.000000,-3.000000,16394.000000,12.000000,-7.000000,9.000000
9.727352,2.000000,3.000000,16381.000000,24.000000,0.000000,4.000000
9.727753,-5.000000,5.000000,16393.000000,-11.000000,-9.000000,18.000000
9.728865,-11.000000,3.000000,16398.000000,20.000000,-7.000000,8.000000
9.730163,-10.000000,13.000000,16385.000000,9.000000,0.000000,16.000000
9.741172,0.000000,0.000000,16399.000000,21.000000,13.000000,6.000000
9.743061,1.000000,-6.000000,16410.000000,15.000000,-11.000000,-1.000000
9.763370,-12.000000,8.000000,16361.000000,27.000000,-10.000000,12.000000
9.766521,0.000000,-6.000000,16380.000000,33.000000,-20.000000,-28.000000
9.904775,0.000000,5.000000,16405.000000,-7.000000,15.000000,-25.000000
9.906619,0.000000,-3.000000,16398.000000,-13.000000,-4.000000,-12.000000
9.907397,11.000000,10.000000,16393.000000,4.000000,-27.000000,-8.000000
9.907984,4.000000,2.000000,16405.000000,7.000000,4.000000,8.000000
9.908543,16.000000,-3.000000,16403.000000,4.000000,3.000000,13.000000
9.909119,0.000000,-2.000000,16411.000000,9.000000,0.000000,14.000000
9.909619,-9.000000,3.000000,16407.000000,16.000000,0.000000,10.000000
9.910215,4.000000,5.000000,16408.000000,11.000000,-5.000000,11.000000
9.913610,0.000000,9.000000,16388.000000,14.000000,4.000000,14.000000
9.915590,-3.000000,3.000000,16375.000000,11.000000,-4.000000,2.000000
9.917347,6.000000,3.000000,16402.000000,26.000000,-13.000000,0.000000
9.919124,-2.000000,-4.000000,16408.000000,-7.000000,12.000000,2.000000
9.920898,-9.000000,0.000000,16394.000000,-12.000000,2.000000,-18.000000
9.922757,3.000000,-7.000000,16390.000000,2.000000,0.000000,-1.000000
9.924459,6.000000,5.000000,16405.000000,7.000000,3.000000,8.000000
9.926829,3.000000,-10.000000,16376.000000,-7.000000,-13.000000,-4.000000
10.023801,0.000000,16.000000,16379.000000,4.000000,1.000000,-2.000000
10.025288,-8.000000,-2.000000,16403.000000,16.000000,-12.000000,19.000000
10.026919,4.000000,7.000000,16405.000000,41.000000,6.000000,32.000000
10.028526,3.000000,-1.000000,16416.000000,3.000000,30.000000,17.000000
10.030278,-10.000000,7.000000,16397.000000,1.000000,17.000000,4.000000
10.031749,7.000000,16.000000,16390.000000,7.000000,-12.000000,-4.000000
10.032482,1.000000,3.000000,16402.000000,-29.000000,9.000000,7.000000
10.033095,-3.000000,-9.000000,16392.000000,13.000000,-9.000000,5.000000
10.033764,-10.000000,4.000000,16398.000000,-2.000000,-24.000000,7.000000
10.034905,0.000000,-1.000000,16394.000000,-20.000000,9.000000,-14.000000
10.036017,12.000000,2.000000,16382.000000,-25.000000,6.000000,-6.000000
10.050942,-2.000000,0.000000,16386.000000,-7.000000,2.000000,16.000000
10.051935,5.000000,-6.000000,16379.000000,-7.000000,-7.000000,4.000000
10.154974,9.000000,8.000000,16402.000000,-4.000000,-3.000000,5.000000
10.158540,6.000000,6.000000,16393.000000,4.000000,1.000000,13.000000
10.160047,11.000000,4.000000,16402.000000,0.000000,7.000000,9.000000
10.161022,-9.000000,0.000000,16390.000000,-5.000000,8.000000,0.000000
10.163718,-6.000000,8.000000,16402.000000,19.000000,-7.000000,8.000000
10.165966,1.000000,4.000000,16400.000000,4.000000,7.000000,-1.000000
10.168046,-7.000000,11.000000,16402.000000,3.000000,5.000000,-13.000000
10.170408,1.000000,3.000000,16401.000000,-14.000000,10.000000,3.000000
10.172781,-10.000000,-6.000000,16391.000000,19.000000,-4.000000,11.000000
10.173903,-7.000000,3.000000,16397.000000,32.000000,4.000000,12.000000
10.175103,-8.000000,-13.000000,16374.000000,22.000000,7.000000,10.000000
10.176676,-5.000000,3.000000,16407.000000,19.000000,16.000000,5.000000
10.312778,0.000000,-8.000000,16389.000000,0.000000,-8.000000,-1.000000
10.316756,4.000000,0.000000,16392.000000,8.000000,-30.000000,25.000000
10.320673,1.000000,-2.000000,16393.000000,24.000000,-3.000000,-1.000000
10.323534,-2.000000,0.000000,16394.000000,16.000000,3.000000,-13.000000
10.325833,-3.000000,-1.000000,16388.000000,-16.000000,9.000000,1.000000
10.327943,4.000000,-1.000000,16391.000000,-12.000000,-5.000000,0.000000
10.330474,4.000000,21.000000,16398.000000,8.000000,-6.000000,-6.000000
10.332709,5.000000,2.000000,16402.000000,-10.000000,26.000000,1.000000
10.334803,11.000000,-2.000000,16404.000000,7.000000,-6.000000,15.000000
10.337500,3.000000,1.000000,16392.000000,-16.000000,9.000000,-15.000000
10.339034,6.000000,-5.000000,16377.000000,-14.000000,-5.000000,-5.000000
10.340331,1.000000,6.000000,16379.000000,-21.000000,17.000000,-8.000000
10.341571,-17.000000,-10.000000,16369.000000,-15.000000,4.000000,2.000000
10.343241,-2.000000,14.000000,16393.000000,-37.000000,-8.000000,-9.000000
10.345634,5.000000,8.000000,16387.000000,-10.000000,7.000000,5.000000
10.453307,2.000000,-6.000000,16388.000000,-3.000000,-5.000000,7.000000
10.461262,-9.000000,7.000000,16378.000000,-14.000000,11.000000,18.000000
10.463571,4.000000,4.000000,16372.000000,-16.000000,-20.000000,-1.000000
10.464826,-1.000000,1.000000,16399.000000,-21.000000,1.000000,-17.000000
10.466174,1.000000,-2.000000,16407.000000,10.000000,-2.000000,-9.000000
10.468158,-5.000000,4.000000,16397.000000,-8.000000,5.000000,4.000000
10.470496,11.000000,4.000000,16396.000000,19.000000,4.000000,11.000000
10.471741,10.000000,-1.000000,16391.000000,18.000000,-17.000000,10.000000
10.472677,0.000000,3.000000,16408.000000,15.000000,-5.000000,17.000000
10.473688,-5.000000,-6.000000,16400.000000,11.000000,1.000000,35.000000
10.476275,-8.000000,-5.000000,16398.000000,-3.000000,-10.000000,9.000000
10.477328,-2.000000,1.000000,16407.000000,7.000000,-7.000000,3.000000
10.478872,7.000000,3.000000,16403.000000,-10.000000,1.000000,-9.000000
10.479868,8.000000,5.000000,16406.000000,-12.000000,-5.000000,-9.000000
10.480545,1.000000,4.000000,16399.000000,17.000000,-13.000000,0.000000
10.486437,-3.000000,0.000000,16393.000000,-2.000000,-21.000000,-5.000000
10.575852,3.000000,-4.000000,16378.000000,2.000000,-14.000000,-20.000000
10.577638,7.000000,8.000000,16421.000000,9.000000,22.000000,-11.000000
10.579990,12.000000,10.000000,16394.000000,5.000000,8.000000,-15.000000
10.580938,2.000000,6.000000,16417.000000,231.000000,11.000000,-20.000000
10.581741,5.000000,4.000000,16406.000000,-3.000000,4.000000,-15.000000
10.582425,-8.000000,-7.000000,16393.000000,-16.000000,3.000000,-17.000000
10.582987,5.000000,-19.000000,16399.000000,-20.000000,9.000000,-6.000000
10.584079,-3.000000,-4.000000,16398.000000,-4.000000,3.000000,-7.000000
10.586099,-6.000000,-1.000000,16408.000000,-21.000000,6.000000,-5.000000
10.588061,-4.000000,-1.000000,16399.000000,8.000000,6.000000,-2.000000
10.593533,-4.000000,-4.000000,16406.000000,2.000000,3.000000,-12.000000
10.608449,-2.000000,4.000000,16405.000000,1.000000,15.000000,7.000000
10.610586,16.000000,10.000000,16406.000000,7.000000,12.000000,2.000000
10.709048,-8.000000,9.000000,16390.000000,16.000000,-3.000000,7.000000
10.713307,-6.000000,6.000000,16372.000000,-10.000000,-9.000000,-10.000000
10.715394,-1.000000,1.000000,16400.000000,9.000000,-11.000000,-18.000000
10.716862,4.000000,-2.000000,16398.000000,4.000000,-14.000000,-1.000000
10.719116,-12.000000,4.000000,16389.000000,-6.000000,-15.000000,12.000000
10.721087,-16.000000,-7.000000,16408.000000,-13.000000,9.000000,24.000000
10.723879,-8.000000,8.000000,16393.000000,12.000000,-14.000000,18.000000
10.726058,-1.000000,11.000000,16412.000000,14.000000,5.000000,4.000000
10.727828,-7.000000,6.000000,16381.000000,16.000000,-27.000000,-13.000000
10.730421,4.000000,13.000000,16396.000000,11.000000,-23.000000,-10.000000
10.732752,7.000000,3.000000,16401.000000,-11.000000,3.000000,1.000000
10.735688,-1.000000,4.000000,16381.000000,-36.000000,29.000000,-35.000000
10.815754,-4.000000,-2.000000,16399.000000,-22.000000,-8.000000,-14.000000
10.818797,0.000000,6.000000,16384.000000,-9.000000,6.000000,-1.000000
10.820314,7.000000,4.000000,16391.000000,-16.000000,-3.000000,0.000000
10.821788,-3.000000,6.000000,16400.000000,2.000000,-6.000000,7.000000
10.822691,-2.000000,0.000000,16389.000000,18.000000,2.000000,19.000000
10.823641,-3.000000,4.000000,16386.000000,7.000000,0.000000,10.000000
10.824418,-3.000000,-8.000000,16399.000000,2.000000,18.000000,13.000000
10.824885,2.000000,2.000000,16418.000000,7.000000,11.000000,-2.000000
10.827529,0.000000,2.000000,16401.000000,10.000000,-2.000000,-2.000000
10.843377,-9.000000,4.000000,16386.000000,-5.000000,-7.000000,-24.000000
10.844766,0.000000,-4.000000,16404.000000,11.000000,-15.000000,-8.000000
10.960056,1.000000,-2.000000,16393.000000,-25.000000,-12.000000,2.000000
10.963767,-1.000000,2.000000,16388.000000,5.000000,-7.000000,14.000000
10.965644,-5.000000,-4.000000,16416.000000,-1.000000,0.000000,-13.000000
10.966990,-6.000000,-5.000000,16407.000000,5.000000,-9.000000,5.000000
10.968896,1.000000,7.000000,16399.000000,-3.000000,-24.000000,6.000000
10.970341,1.000000,2.000000,16395.000000,2.000000,-11.000000,-18.000000
10.971275,-6.000000,-3.000000,16402.000000,-11.000000,-3.000000,-13.000000
10.972437,-3.000000,-6.000000,16402.000000,9.000000,7.000000,14.000000
10.973315,2.000000,9.000000,16388.000000,13.000000,-3.000000,4.000000
10.974019,9.000000,-2.000000,16390.000000,3.000000,-6.000000,1.000000
10.974548,7.000000,9.000000,16397.000000,-26.000000,28.000000,-25.000000
10.975184,-10.000000,8.000000,16381.000000,-20.000000,-2.000000,-24.000000
10.982775,5.000000,8.000000,16400.000000,-11.000000,0.000000,-3.000000
10.984092,-6.000000,1.000000,16397.000000,-17.000000,-11.000000,-16.000000
11.075913,-7.000000,-6.000000,16399.000000,-13.000000,-12.000000,-2.000000
11.077700,-7.000000,2.000000,16414.000000,-18.000000,1.000000,-6.000000
11.078462,1.000000,-5.000000,16386.000000,7.000000,-14.000000,-13.000000
11.079035,-4.000000,15.000000,16395.000000,2.000000,6.000000,18.000000
11.079549,-4.000000,-7.000000,16391.000000,-7.000000,-14.000000,11.000000
11.080195,-2.000000,-2.000000,16389.000000,-8.000000,-1.000000,23.000000
11.080624,-8.000000,-4.000000,16375.000000,-17.000000,12.000000,12.000000
11.081178,-8.000000,2.000000,16389.000000,4.000000,-15.000000,19.000000
11.081991,1.000000,-8.000000,16387.000000,-2.000000,4.000000,15.000000
11.092712,-11.000000,-6.000000,16405.000000,-6.000000,-13.000000,0.000000
11.095009,-16.000000,7.000000,16389.000000,-42.000000,-3.000000,-7.000000
11.109040,-10.000000,9.000000,16392.000000,14.000000,-29.000000,5.000000
11.111071,2.000000,10.000000,16376.000000,9.000000,4.000000,-11.000000
11.200525,-5.000000,7.000000,16387.000000,4.000000,8.000000,8.000000
11.202295,4.000000,-4.000000,16385.000000,7.000000,-8.000000,7.000000
11.202913,-9.000000,9.000000,16383.000000,5.000000,2.000000,11.000000
11.203489,-4.000000,18.000000,16392.000000,24.000000,23.000000,19.000000
11.204040,-7.000000,4.000000,16384.000000,-8.000000,-5.000000,9.000000
11.204581,0.000000,6.000000,16387.000000,16.000000,-14.000000,0.000000
11.205038,-5.000000,17.000000,16401.000000,17.000000,-5.000000,0.000000
11.205672,-6.000000,15.000000,16384.000000,-10.000000,4.000000,-7.000000
11.206157,-7.000000,3.000000,16409.000000,4.000000,-10.000000,12.000000
11.216814,-7.000000,0.000000,16401.000000,-1.000000,5.000000,9.000000
11.231572,-16.000000,0.000000,16395.000000,14.000000,-1.000000,-15.000000
11.232632,-10.000000,1.000000,16385.000000,6.000000,12.000000,-14.000000
11.315537,0.000000,-6.000000,16386.000000,4.000000,0.000000,6.000000
11.317975,6.000000,-3.000000,16375.000000,-9.000000,0.000000,3.000000
11.318833,-5.000000,8.000000,16410.000000,8.000000,-5.000000,-2.000000
11.319538,-4.000000,2.000000,16401.000000,-12.000000,17.000000,15.000000
11.320047,3.000000,-9.000000,16400.000000,7.000000,-9.000000,17.000000
11.320685,-4.000000,4.000000,16400.000000,6.000000,-13.000000,-12.000000
11.321186,-4.000000,-2.000000,16402.000000,-2.000000,-18.000000,-15.000000
11.321790,-1.000000,0.000000,16403.000000,-23.000000,-10.000000,-16.000000
11.325579,2.000000,4.000000,16391.000000,-5.000000,15.000000,-15.000000
11.341378,1.000000,2.000000,16384.000000,-3.000000,-4.000000,12.000000
11.342447,8.000000,-6.000000,16383.000000,-1.000000,-7.000000,21.000000
11.432443,7.000000,0.000000,16383.000000,-3.000000,6.000000,9.000000
11.435294,11.000000,0.000000,16394.000000,6.000000,11.000000,18.000000
11.436744,-6.000000,6.000000,16381.000000,19.000000,-18.000000,22.000000
11.438323,-1.000000,5.000000,16395.000000,26.000000,1.000000,19.000000
11.439771,-3.000000,3.000000,16389.000000,14.000000,10.000000,6.000000
11.440483,9.000000,9.000000,16400.000000,8.000000,-7.000000,1.000000
11.441018,-6.000000,-3.000000,16390.000000,10.000000,-8.000000,-5.000000
11.441527,-1.000000,-8.000000,16373.000000,14.000000,15.000000,-1.000000
11.442072,0.000000,4.000000,16380.000000,11.000000,-2.000000,-17.000000
11.449103,-1.000000,3.000000,16393.000000,10.000000,-4.000000,-11.000000
11.450490,9.000000,2.000000,16392.000000,-12.000000,9.000000,-17.000000
11.464804,0.000000,11.000000,16410.000000,2.000000,-6.000000,-5.000000
11.539514,1.000000,-11.000000,16371.000000,-2.000000,3.000000,-12.000000
11.541209,2.000000,7.000000,16403.000000,-5.000000,23.000000,-13.000000
11.541825,8.000000,15.000000,16405.000000,-1.000000,27.000000,-3.000000
11.542324,-6.000000,-10.000000,16372.000000,2.000000,-7.000000,1.000000
11.542778,-4.000000,11.000000,16374.000000,-9.000000,1.000000,1.000000
11.543233,3.000000,0.000000,16396.000000,13.000000,-16.000000,8.000000
11.543728,-9.000000,-4.000000,16397.000000,-6.000000,-3.000000,2.000000
11.544137,-2.000000,3.000000,16392.000000,-2.000000,6.000000,10.000000
11.557709,3.000000,0.000000,16392.000000,0.000000,-6.000000,10.000000
11.559538,-17.000000,6.000000,16362.000000,12.000000,-15.000000,-8.000000
11.572902,4.000000,4.000000,16392.000000,20.000000,10.000000,0.000000
11.672482,-9.000000,-3.000000,16387.000000,28.000000,-9.000000,5.000000
11.675678,-13.000000,4.000000,16382.000000,-12.000000,-14.000000,-8.000000
11.677440,-2.000000,10.000000,16402.000000,15.000000,-19.000000,7.000000
11.678543,6.000000,19.000000,16368.000000,-5.000000,9.000000,-5.000000
11.679375,12.000000,8.000000,16370.000000,-8.000000,1.000000,0.000000
11.680198,0.000000,6.000000,16379.000000,1.000000,5.000000,0.000000
11.680911,5.000000,7.000000,16396.000000,20.000000,-8.000000,-14.000000
11.683436,-3.000000,9.000000,16388.000000,-25.000000,3.000000,-5.000000
11.684528,6.000000,12.000000,16400.000000,-34.000000,1.000000,-18.000000
11.685500,-5.000000,21.000000,16379.000000,-31.000000,8.000000,-24.000000
11.686331,-11.000000,0.000000,16381.000000,8.000000,0.000000,-14.000000
11.697782,0.000000,-4.000000,16382.000000,-19.000000,10.000000,-5.000000
11.787626,-9.000000,-11.000000,16403.000000,-2.000000,22.000000,2.000000
11.789101,6.000000,9.000000,16362.000000,8.000000,-5.000000,14.000000
11.789784,-1.000000,1.000000,16384.000000,-7.000000,-12.000000,6.000000
11.790278,5.000000,1.000000,16399.000000,-18.000000,-2.000000,6.000000
11.791305,-3.000000,15.000000,16385.000000,-13.000000,0.000000,-6.000000
11.792703,1.000000,17.000000,16376.000000,10.000000,2.000000,-9.000000
11.794927,4.000000,1.000000,16388.000000,-7.000000,0.000000,-14.000000
11.797597,-4.000000,6.000000,16382.000000,-2.000000,-6.000000,-16.000000
11.799430,12.000000,-8.000000,16374.000000,-2.000000,5.000000,5.000000
11.800272,-3.000000,-3.000000,16393.000000,5.000000,28.000000,-1.000000
11.806885,-10.000000,8.000000,16367.000000,10.000000,-13.000000,-10.000000
11.822123,-3.000000,12.000000,16389.000000,-18.000000,-19.000000,3.000000
11.823175,0.000000,5.000000,16400.000000,3.000000,-7.000000,-1.000000
11.899194,-8.000000,7.000000,16391.000000,15.000000,-1.000000,-7.000000
11.902127,5.000000,5.000000,16384.000000,14.000000,-20.000000,-6.000000
11.904018,-1.000000,14.000000,16386.000000,-11.000000,7.000000,-25.000000
11.905664,-8.000000,7.000000,16400.000000,-7.000000,3.000000,11.000000
11.906716,-2.000000,2.000000,16383.000000,-19.000000,9.000000,-4.000000
11.907455,1.000000,-5.000000,16365.000000,-13.000000,1.000000,-4.000000
11.908205,9.000000,-10.000000,16384.000000,-26.000000,4.000000,-23.000000
11.908786,-6.000000,4.000000,16398.000000,0.000000,-1.000000,12.000000
11.916620,-3.000000,10.000000,16395.000000,-11.000000,5.000000,-2.000000
11.932795,-2.000000,9.000000,16384.000000,10.000000,-34.000000,11.000000
11.933942,9.000000,-2.000000,16360.000000,28.000000,2.000000,1.000000
12.017746,-6.000000,6.000000,16364.000000,-2.000000,19.000000,-15.000000
12.021423,-6.000000,-7.000000,16398.000000,-34.000000,15.000000,-24.000000
12.022957,2.000000,12.000000,16376.000000,1.000000,9.000000,6.000000
12.024534,1.000000,-6.000000,16370.000000,21.000000,6.000000,3.000000
12.026132,5.000000,-6.000000,16393.000000,21.000000,10.000000,11.000000
12.027436,2.000000,9.000000,16368.000000,-2.000000,-13.000000,18.000000
12.029485,6.000000,-5.000000,16379.000000,-7.000000,2.000000,20.000000
12.031001,3.000000,3.000000,16366.000000,3.000000,-29.000000,30.000000
12.032563,-12.000000,4.000000,16389.000000,-17.000000,-13.000000,6.000000
12.041445,-10.000000,-1.000000,16395.000000,-1.000000,-29.000000,8.000000
12.042684,0.000000,12.000000,16372.000000,17.000000,20.000000,1.000000
12.124746,-5.000000,3.000000,16378.000000,50.000000,5.000000,1.000000
12.126346,-5.000000,3.000000,16385.000000,8.000000,6.000000,-15.000000
12.127003,-11.000000,10.000000,16395.000000,8.000000,-15.000000,10.000000
12.127521,10.000000,-6.000000,16392.000000,-8.000000,-1.000000,0.000000
12.128023,-11.000000,5.000000,16376.000000,14.000000,-1.000000,3.000000
12.128532,-7.000000,6.000000,16367.000000,16.000000,6.000000,12.000000
12.128936,-2.000000,4.000000,16376.000000,13.000000,-7.000000,20.000000
12.129549,2.000000,-5.000000,16367.000000,15.000000,10.000000,11.000000
12.135755,-10.000000,-1.000000,16401.000000,10.000000,9.000000,-3.000000
12.150798,7.000000,8.000000,16387.000000,1.000000,9.000000,-2.000000
12.151782,-3.000000,-3.000000,16370.000000,3.000000,10.000000,4.000000
12.166408,-9.000000,-7.000000,16385.000000,2.000000,-6.000000,-4.000000
12.241539,-8.000000,1.000000,16384.000000,-20.000000,-11.000000,2.000000
12.242907,-11.000000,9.000000,16361.000000,-27.000000,-11.000000,-12.000000
12.243406,-3.000000,5.000000,16366.000000,-16.000000,-8.000000,1.000000
12.243935,4.000000,-10.000000,16364.000000,-2.000000,-23.000000,17.000000
12.244369,-4.000000,-11.000000,16385.000000,8.000000,5.000000,12.000000
12.244896,-16.000000,-7.000000,16395.000000,-7.000000,-4.000000,-3.000000
12.245377,-11.000000,-5.000000,16366.000000,-15.000000,-9.000000,-15.000000
12.246396,-1.000000,16.000000,16389.000000,0.000000,-10.000000,-9.000000
12.258592,11.000000,15.000000,16361.000000,6.000000,2.000000,28.000000
12.260500,18.000000,15.000000,16393.000000,10.000000,-30.000000,3.000000
12.274029,34.000000,10.000000,16376.000000,16.000000,-42.000000,-18.000000
12.359813,24.000000,4.000000,16368.000000,10.000000,-40.000000,-13.000000
12.361197,22.000000,23.000000,16366.000000,23.000000,-13.000000,1.000000
12.361809,6.000000,6.000000,16379.000000,2.000000,6.000000,-3.000000
12.362269,-7.000000,3.000000,16363.000000,-6.000000,25.000000,-13.000000
12.362973,-8.000000,-6.000000,16370.000000,-24.000000,36.000000,17.000000
12.363485,-20.000000,-6.000000,16363.000000,-13.000000,37.000000,10.000000
12.363927,-27.000000,1.000000,16376.000000,-15.000000,-1.000000,11.000000
12.364332,-20.000000,-2.000000,16375.000000,5.000000,-24.000000,9.000000
12.367410,-15.000000,-5.000000,16371.000000,18.000000,-5.000000,20.000000
12.383713,-7.000000,-10.000000,16361.000000,34.000000,-17.000000,24.000000
12.384751,-1.000000,-2.000000,16377.000000,10.000000,-19.000000,4.000000
12.399418,-9.000000,-14.000000,16360.000000,-8.000000,-8.000000,-11.000000
12.400561,-3.000000,-12.000000,16381.000000,-23.000000,10.000000,-30.000000
12.474163,2.000000,-2.000000,16377.000000,-16.000000,-18.000000,-16.000000
12.475265,-6.000000,1.000000,16371.000000,12.000000,-5.000000,9.000000
12.475769,-6.000000,5.000000,16382.000000,37.000000,0.000000,30.000000
12.476263,-2.000000,9.000000,16366.000000,-1.000000,16.000000,11.000000
12.476659,8.000000,17.000000,16389.000000,18.000000,2.000000,-6.000000
12.477121,-4.000000,9.000000,16354.000000,-24.000000,-1.000000,0.000000
12.477749,2.000000,22.000000,16354.000000,-22.000000,2.000000,10.000000
12.478284,7.000000,2.000000,16374.000000,24.000000,-7.000000,10.000000
12.494095,13.000000,-11.000000,16388.000000,5.000000,1.000000,11.000000
12.509589,5.000000,-1.000000,16387.000000,-11.000000,-16.000000,-6.000000
12.510606,-3.000000,-1.000000,16368.000000,11.000000,-38.000000,-4.000000
12.586803,9.000000,-6.000000,16372.000000,11.000000,-25.000000,2.000000
12.588407,-2.000000,-19.000000,16362.000000,17.000000,-6.000000,10.000000
12.588984,1.000000,-16.000000,16381.000000,3.000000,-6.000000,-7.000000
12.589402,-3.000000,0.000000,16366.000000,-11.000000,12.000000,-21.000000
12.589871,-5.000000,-7.000000,16380.000000,-2.000000,17.000000,-2.000000
12.590263,-18.000000,3.000000,16370.000000,-25.000000,29.000000,-10.000000
12.590774,-5.000000,-1.000000,16392.000000,25.000000,-15.000000,0.000000
12.591189,-7.000000,19.000000,16368.000000,26.000000,-34.000000,15.000000
12.603689,-1.000000,4.000000,16374.000000,-6.000000,-20.000000,9.000000
12.619372,7.000000,26.000000,16387.000000,-7.000000,-43.000000,-14.000000
12.620198,10.000000,20.000000,16354.000000,10.000000,-43.000000,6.000000
12.708436,1.000000,27.000000,16367.000000,-28.000000,3.000000,-7.000000
12.709660,11.000000,14.000000,16380.000000,-29.000000,8.000000,-3.000000
12.710161,2.000000,-4.000000,16374.000000,-3.000000,12.000000,3.000000
12.710609,4.000000,-9.000000,16377.000000,7.000000,25.000000,9.000000
12.711051,6.000000,-2.000000,16365.000000,7.000000,14.000000,1.000000
12.711451,2.000000,-7.000000,16384.000000,17.000000,-14.000000,-5.000000
12.711961,-8.000000,-7.000000,16384.000000,-6.000000,2.000000,-14.000000
12.712954,-6.000000,-6.000000,16380.000000,-17.000000,1.000000,-1.000000
12.714106,-6.000000,-2.000000,16380.000000,-17.000000,6.000000,-1.000000
12.729404,-10.000000,-1.000000,16363.000000,-33.000000,6.000000,-10.000000
12.731661,-4.000000,-7.000000,16380.000000,0.000000,1.000000,-3.000000
12.745121,-17.000000,3.000000,16379.000000,6.000000,-9.000000,17.000000
12.831215,-23.000000,0.000000,16372.000000,-12.000000,15.000000,0.000000
12.834466,-20.000000,7.000000,16364.000000,240.000000,10.000000,4.000000
12.836418,-8.000000,-2.000000,16369.000000,28.000000,-8.000000,0.000000
12.838495,-5.000000,16.000000,16381.000000,-1.000000,-22.000000,-19.000000
12.839568,-3.000000,5.000000,16377.000000,12.000000,-6.000000,-4.000000
12.840432,19.000000,-2.000000,16391.000000,18.000000,-4.000000,8.000000
12.841136,9.000000,5.000000,16378.000000,1.000000,15.000000,1.000000
12.842223,8.000000,-3.000000,16389.000000,-11.000000,7.000000,-1.000000
12.844282,-2.000000,-1.000000,16371.000000,0.000000,16.000000,17.000000
12.846660,2.000000,-7.000000,16358.000000,15.000000,20.000000,1.000000
12.854512,-2.000000,-8.000000,16375.000000,16.000000,7.000000,5.000000
12.870143,0.000000,-6.000000,16388.000000,1.000000,21.000000,-14.000000
12.871181,-6.000000,8.000000,16379.000000,-3.000000,2.000000,-15.000000
12.963803,-16.000000,-11.000000,16388.000000,-17.000000,-20.000000,-15.000000
12.967358,-9.000000,0.000000,16386.000000,2.000000,-22.000000,4.000000
12.968354,-3.000000,4.000000,16387.000000,6.000000,-28.000000,2.000000
12.969662,-9.000000,3.000000,16393.000000,33.000000,-8.000000,14.000000
12.971210,-9.000000,5.000000,16362.000000,10.000000,2.000000,11.000000
12.973091,9.000000,6.000000,16360.000000,8.000000,-2.000000,8.000000
12.974712,-1.000000,13.000000,16387.000000,-11.000000,-1.000000,0.000000
12.976325,-11.000000,2.000000,16371.000000,-21.000000,-1.000000,10.000000
12.977275,-13.000000,1.000000,16375.000000,-4.000000,-2.000000,-2.000000
12.979744,-5.000000,0.000000,16369.000000,-1.000000,9.000000,-11.000000
12.980706,-4.000000,8.000000,16394.000000,3.000000,-4.000000,-8.000000
12.995769,6.000000,12.000000,16381.000000,1.000000,16.000000,-8.000000
13.075398,1.000000,6.000000,16384.000000,5.000000,14.000000,-2.000000
13.076831,-1.000000,10.000000,16378.000000,3.000000,-7.000000,-3.000000
13.077345,0.000000,2.000000,16396.000000,10.000000,-2.000000,11.000000
13.077773,0.000000,-5.000000,16367.000000,-12.000000,5.000000,18.000000
13.078203,5.000000,-4.000000,16382.000000,22.000000,6.000000,-1.000000
13.078623,-5.000000,0.000000,16388.000000,5.000000,0.000000,-1.000000
13.079140,-2.000000,5.000000,16402.000000,6.000000,9.000000,3.000000
13.079549,-12.000000,-10.000000,16388.000000,11.000000,31.000000,23.000000
13.090420,4.000000,-9.000000,16380.000000,26.000000,-12.000000,12.000000
13.092166,1.000000,0.000000,16404.000000,-1.000000,-25.000000,2.000000
13.106728,1.000000,3.000000,16389.000000,14.000000,-13.000000,9.000000
13.191667,-9.000000,-3.000000,16395.000000,-1.000000,2.000000,12.000000
13.193000,3.000000,0.000000,16401.000000,-5.000000,-5.000000,4.000000
13.193505,7.000000,-3.000000,16383.000000,-32.000000,14.000000,-8.000000
13.193965,1.000000,8.000000,16383.000000,0.000000,13.000000,8.000000
13.194380,-3.000000,8.000000,16380.000000,-16.000000,-12.000000,-18.000000
13.194816,2.000000,2.000000,16366.000000,-9.000000,5.000000,-19.000000
13.195280,-9.000000,-4.000000,16381.000000,2.000000,9.000000,7.000000
13.195680,-11.000000,-3.000000,16401.000000,25.000000,-2.000000,5.000000
13.201065,-5.000000,5.000000,16380.000000,0.000000,1.000000,-15.000000
13.202479,6.000000,7.000000,16391.000000,27.000000,-24.000000,6.000000
13.216958,2.000000,1.000000,16387.000000,28.000000,-19.000000,-14.000000
13.232720,1.000000,10.000000,16388.000000,11.000000,33.000000,14.000000
13.305083,10.000000,4.000000,16392.000000,9.000000,33.000000,8.000000
13.307239,-10.000000,-12.000000,16392.000000,1.000000,16.000000,2.000000
13.307910,1.000000,-1.000000,16390.000000,-22.000000,23.000000,-5.000000
13.308507,5.000000,7.000000,16380.000000,-2.000000,3.000000,-10.000000
13.308953,1.000000,1.000000,16401.000000,-25.000000,18.000000,-8.000000
13.309503,3.000000,3.000000,16402.000000,-6.000000,-15.000000,14.000000
13.309924,-6.000000,3.000000,16403.000000,-9.000000,-10.000000,8.000000
13.311364,10.000000,6.000000,16372.000000,-27.000000,-7.000000,4.000000
13.313386,2.000000,12.000000,16378.000000,-20.000000,-9.000000,-6.000000
13.327197,4.000000,-1.000000,16396.000000,13.000000,-13.000000,1.000000
13.342347,18.000000,-3.000000,16390.000000,4.000000,-25.000000,-5.000000
13.343244,-6.000000,-2.000000,16413.000000,-23.000000,-24.000000,-31.000000
13.412893,-1.000000,9.000000,16370.000000,-34.000000,1.000000,-35.000000
13.415923,-8.000000,-1.000000,16370.000000,-27.000000,-5.000000,-26.000000
13.417435,2.000000,-1.000000,16378.000000,-23.000000,5.000000,-4.000000
13.418775,-5.000000,-6.000000,16370.000000,6.000000,-20.000000,-3.000000
13.420195,3.000000,5.000000,16396.000000,0.000000,-16.000000,-26.000000
13.421745,11.000000,-3.000000,16380.000000,24.000000,-24.000000,-7.000000
13.423819,2.000000,7.000000,16404.000000,-20.000000,2.000000,-15.000000
13.425507,4.000000,2.000000,16391.000000,26.000000,-9.000000,-6.000000
13.441995,-4.000000,-4.000000,16382.000000,-3.000000,22.000000,-7.000000
13.447163,-9.000000,-17.000000,16404.000000,2.000000,20.000000,3.000000
13.454550,3.000000,0.000000,16365.000000,-20.000000,2.000000,13.000000
13.579913,-14.000000,-9.000000,16372.000000,-11.000000,-20.000000,-16.000000
13.581373,1.000000,-1.000000,16383.000000,-19.000000,3.000000,-16.000000
13.581951,3.000000,-8.000000,16391.000000,11.000000,1.000000,1.000000
13.582551,-1.000000,-9.000000,16374.000000,-2.000000,12.000000,-3.000000
13.583058,-3.000000,6.000000,16397.000000,-19.000000,-3.000000,4.000000
13.583628,6.000000,4.000000,16400.000000,13.000000,-4.000000,-11.000000
13.584095,-6.000000,15.000000,16394.000000,-1.000000,8.000000,-14.000000
13.584663,8.000000,15.000000,16388.000000,18.000000,-4.000000,14.000000
13.585208,-10.000000,3.000000,16401.000000,6.000000,-2.000000,3.000000
13.585714,-6.000000,4.000000,16377.000000,-15.000000,-34.000000,14.000000
13.586211,0.000000,10.000000,16386.000000,9.000000,-7.000000,-2.000000
13.586721,6.000000,11.000000,16391.000000,7.000000,-15.000000,8.000000
13.592948,-7.000000,3.000000,16370.000000,-7.000000,-26.000000,2.000000
13.593809,4.000000,-8.000000,16395.000000,12.000000,2.000000,-1.000000
13.608503,-9.000000,8.000000,16379.000000,15.000000,6.000000,8.000000
13.609391,6.000000,0.000000,16385.000000,-2.000000,-2.000000,-17.000000
13.743923,6.000000,-2.000000,16375.000000,8.000000,-15.000000,-12.000000
13.746130,1.000000,-19.000000,16375.000000,3.000000,-14.000000,-2.000000
13.747238,7.000000,10.000000,16393.000000,-3.000000,7.000000,3.000000
13.747943,-4.000000,3.000000,16410.000000,-16.000000,1.000000,-11.000000
13.748937,3.000000,5.000000,16393.000000,-3.000000,-5.000000,1.000000
13.749618,6.000000,2.000000,16390.000000,5.000000,-18.000000,25.000000
13.750261,1.000000,0.000000,16381.000000,26.000000,-7.000000,15.000000
13.750786,4.000000,4.000000,16382.000000,3.000000,-4.000000,-5.000000
13.751406,8.000000,-1.000000,16380.000000,-20.000000,-4.000000,-8.000000
13.751967,7.000000,9.000000,16390.000000,-17.000000,-7.000000,-8.000000
13.752473,10.000000,-6.000000,16371.000000,-19.000000,-11.000000,-27.000000
13.753049,-3.000000,6.000000,16375.000000,-16.000000,-1.000000,-5.000000
13.753686,-2.000000,-5.000000,16376.000000,-4.000000,10.000000,-16.000000
13.754721,-9.000000,2.000000,16369.000000,-26.000000,16.000000,-16.000000
13.764534,-2.000000,-3.000000,16396.000000,7.000000,-13.000000,-12.000000
13.890318,-3.000000,11.000000,16354.000000,5.000000,20.000000,5.000000
13.891938,-8.000000,-3.000000,16377.000000,4.000000,-6.000000,14.000000
13.892566,-8.000000,-3.000000,16396.000000,22.000000,5.000000,12.000000
13.893215,5.000000,0.000000,16394.000000,8.000000,-7.000000,-6.000000
13.893814,-18.000000,-6.000000,16384.000000,-5.000000,19.000000,-5.000000
13.894334,-1.000000,1.000000,16410.000000,10.000000,-7.000000,-6.000000
13.894992,-1.000000,11.000000,16376.000000,9.000000,6.000000,-11.000000
13.895718,3.000000,0.000000,16367.000000,10.000000,-5.000000,-2.000000
13.896536,-9.000000,0.000000,16382.000000,-3.000000,-7.000000,7.000000
13.897416,-4.000000,15.000000,16376.000000,27.000000,2.000000,26.000000
13.898369,12.000000,-1.000000,16378.000000,-16.000000,7.000000,18.000000
13.899776,-5.000000,-10.000000,16376.000000,18.000000,8.000000,0.000000
13.901314,0.000000,9.000000,16380.000000,-3.000000,27.000000,-22.000000
13.904905,13.000000,12.000000,16405.000000,-8.000000,-27.000000,-20.000000
13.920206,2.000000,19.000000,16395.000000,12.000000,-20.000000,-13.000000
13.922790,8.000000,1.000000,16382.000000,13.000000,-13.000000,-4.000000
14.059202,-6.000000,-3.000000,16385.000000,1.000000,23.000000,-7.000000
14.062307,2.000000,4.000000,16401.000000,26.000000,-4.000000,-8.000000
14.064238,2.000000,-8.000000,16384.000000,3.000000,-24.000000,11.000000
14.064973,5.000000,8.000000,16399.000000,-8.000000,13.000000,7.000000
14.065811,4.000000,-10.000000,16401.000000,1.000000,-5.000000,8.000000
14.066582,0.000000,-4.000000,16396.000000,25.000000,-13.000000,-8.000000
14.067266,13.000000,1.000000,16392.000000,6.000000,-18.000000,-9.000000
14.067818,-8.000000,-6.000000,16407.000000,-2.000000,-15.000000,15.000000
14.068420,0.000000,6.000000,16404.000000,24.000000,-7.000000,-16.000000
14.068909,6.000000,6.000000,16395.000000,29.000000,8.000000,2.000000
14.069501,6.000000,1.000000,16404.000000,2.000000,9.000000,14.000000
14.069983,-5.000000,5.000000,16411.000000,-24.000000,3.000000,15.000000
14.070625,-3.000000,9.000000,16385.000000,8.000000,-1.000000,5.000000
14.071167,-1.000000,1.000000,16399.000000,28.000000,3.000000,4.000000
14.076959,-3.000000,4.000000,16401.000000,-12.000000,-13.000000,1.000000
14.092132,-5.000000,-6.000000,16390.000000,-3.000000,6.000000,14.000000
14.094432,-12.000000,1.000000,16411.000000,-14.000000,4.000000,1.000000
14.196399,2.000000,11.000000,16390.000000,16.000000,8.000000,8.000000
14.198147,-13.000000,-7.000000,16404.000000,0.000000,-3.000000,2.000000
14.198952,-15.000000,-5.000000,16377.000000,-3.000000,19.000000,22.000000
14.199607,-18.000000,-9.000000,16393.000000,-6.000000,1.000000,3.000000
14.202848,-1.000000,-5.000000,16400.000000,3.000000,-10.000000,8.000000
14.205734,-7.000000,2.000000,16370.000000,26.000000,-4.000000,-28.000000
14.207969,-5.000000,-2.000000,16383.000000,15.000000,1.000000,-30.000000
14.212222,-8.000000,-9.000000,16379.000000,8.000000,-2.000000,7.000000
14.214100,-8.000000,8.000000,16389.000000,17.000000,-2.000000,-3.000000
14.215968,12.000000,3.000000,16399.000000,-8.000000,-13.000000,-19.000000
14.217864,6.000000,22.000000,16381.000000,-6.000000,-16.000000,-1.000000
14.219785,16.000000,8.000000,16374.000000,1.000000,16.000000,18.000000
14.318169,6.000000,9.000000,16390.000000,20.000000,5.000000,2.000000
14.321732,15.000000,7.000000,16390.000000,5.000000,0.000000,12.000000
14.323833,5.000000,1.000000,16406.000000,2.000000,3.000000,-13.000000
14.326186,-9.000000,10.000000,16402.000000,4.000000,1.000000,-12.000000
14.328605,7.000000,11.000000,16405.000000,20.000000,-8.000000,3.000000
14.330817,-7.000000,-1.000000,16404.000000,6.000000,-20.000000,4.000000
14.333073,5.000000,0.000000,16395.000000,6.000000,-5.000000,21.000000
14.335292,1.000000,1.000000,16386.000000,8.000000,-9.000000,15.000000
14.337489,8.000000,-3.000000,16398.000000,13.000000,12.000000,10.000000
14.339451,3.000000,-8.000000,16396.000000,17.000000,-12.000000,27.000000
14.342042,1.000000,-2.000000,16382.000000,2.000000,-22.000000,10.000000
14.343997,2.000000,-8.000000,16386.000000,-9.000000,-11.000000,14.000000
14.344920,-5.000000,1.000000,16386.000000,22.000000,-34.000000,11.000000
14.355951,7.000000,6.000000,16394.000000,-4.000000,-7.000000,3.000000
14.438589,9.000000,-5.000000,16403.000000,-10.000000,8.000000,-3.000000
14.440899,8.000000,8.000000,16402.000000,9.000000,8.000000,-10.000000
14.441668,-6.000000,-1.000000,16389.000000,-24.000000,6.000000,-2.000000
14.442322,-4.000000,10.000000,16378.000000,1.000000,-4.000000,-21.000000
14.442847,-7.000000,6.000000,16395.000000,-2.000000,-15.000000,-15.000000
14.443424,1.000000,0.000000,16383.000000,0.000000,-4.000000,3.000000
14.443932,-1.000000,1.000000,16395.000000,4.000000,12.000000,6.000000
14.445898,-7.000000,12.000000,16387.000000,14.000000,1.000000,8.000000
14.449745,-1.000000,5.000000,16397.000000,-6.000000,19.000000,-3.000000
14.451025,9.000000,4.000000,16405.000000,9.000000,6.000000,9.000000
14.465670,1.000000,15.000000,16385.000000,-9.000000,-1.000000,-2.000000
14.550351,11.000000,3.000000,16385.000000,7.000000,-17.000000,-6.000000
14.552701,-11.000000,-11.000000,16399.000000,-17.000000,-4.000000,-19.000000
14.553429,6.000000,8.000000,16394.000000,0.000000,-12.000000,-13.000000
14.554034,-3.000000,0.000000,16384.000000,-28.000000,17.000000,-9.000000
14.554640,-5.000000,10.000000,16372.000000,-11.000000,-6.000000,-5.000000
14.555093,3.000000,8.000000,16397.000000,-3.000000,4.000000,16.000000
14.555966,5.000000,2.000000,16405.000000,-29.000000,-4.000000,5.000000
14.556768,-9.000000,3.000000,16387.000000,0.000000,-15.000000,8.000000
14.559098,-9.000000,-1.000000,16379.000000,-5.000000,-1.000000,-3.000000
14.561043,-2.000000,-6.000000,16397.000000,-19.000000,15.000000,-14.000000
14.574291,-4.000000,-12.000000,16391.000000,-19.000000,-6.000000,-5.000000
14.660914,-2.000000,-28.000000,16392.000000,-20.000000,-20.000000,-3.000000
14.662176,-1.000000,0.000000,16398.000000,-2.000000,0.000000,9.000000
14.662882,0.000000,-9.000000,16380.000000,-18.000000,-20.000000,-12.000000
14.663435,5.000000,8.000000,16399.000000,15.000000,2.000000,-1.000000
14.663848,-1.000000,21.000000,16406.000000,-7.000000,8.000000,-5.000000
14.664369,-5.000000,8.000000,16379.000000,6.000000,15.000000,3.000000
14.664791,12.000000,-9.000000,16398.000000,5.000000,-26.000000,1.000000
14.665263,-1.000000,12.000000,16399.000000,-4.000000,6.000000,11.000000
14.667681,9.000000,5.000000,16402.000000,17.000000,7.000000,4.000000
14.669549,-3.000000,8.000000,16391.000000,6.000000,11.000000,0.000000
14.683545,5.000000,7.000000,16406.000000,3.000000,18.000000,-8.000000
14.699108,-3.000000,9.000000,16408.000000,-28.000000,18.000000,-2.000000
14.700192,3.000000,16.000000,16394.000000,-8.000000,-1.000000,-11.000000
14.779108,-7.000000,-3.000000,16387.000000,1.000000,-20.000000,9.000000
14.780938,5.000000,4.000000,16399.000000,-5.000000,-15.000000,23.000000
14.781621,3.000000,0.000000,16407.000000,-11.000000,15.000000,8.000000
14.782127,-1.000000,8.000000,16375.000000,21.000000,11.000000,4.000000
14.782612,9.000000,-6.000000,16391.000000,-4.000000,1.000000,-10.000000
14.783054,-5.000000,-13.000000,16384.000000,-25.000000,3.000000,-15.000000
14.783651,12.000000,-11.000000,16410.000000,-15.000000,2.000000,-29.000000
14.793898,4.000000,2.000000,16398.000000,31.000000,-23.000000,3.000000
14.796214,14.000000,0.000000,16390.000000,-40.000000,-3.000000,-30.000000
14.809024,0.000000,10.000000,16393.000000,-10.000000,-2.000000,-28.000000
14.810059,-10.000000,-6.000000,16400.000000,-3.000000,12.000000,-7.000000
14.898239,12.000000,-3.000000,16404.000000,21.000000,1.000000,27.000000
14.901210,4.000000,1.000000,16383.000000,-30.000000,-2.000000,-2.000000
14.903204,-5.000000,6.000000,16368.000000,-4.000000,-12.000000,0.000000
14.904933,7.000000,2.000000,16395.000000,-1.000000,-2.000000,-3.000000
14.906697,10.000000,6.000000,16393.000000,-17.000000,2.000000,-2.000000
14.908467,2.000000,-13.000000,16405.000000,-5.000000,4.000000,3.000000
14.909871,-9.000000,-11.000000,16389.000000,3.000000,-1.000000,8.000000
14.910604,8.000000,0.000000,16396.000000,-27.000000,16.000000,17.000000
14.911209,0.000000,0.000000,16383.000000,-7.000000,-5.000000,-1.000000
14.918489,7.000000,7.000000,16393.000000,-13.000000,2.000000,-6.000000
14.919573,2.000000,5.000000,16396.000000,11.000000,-18.000000,6.000000
14.935032,-6.000000,1.000000,16401.000000,4.000000,19.000000,-4.000000
15.020746,-7.000000,17.000000,16396.000000,7.000000,9.000000,9.000000
15.023822,-7.000000,6.000000,16402.000000,10.000000,-10.000000,20.000000
15.024491,6.000000,-8.000000,16369.000000,2.000000,-9.000000,16.000000
15.025087,-9.000000,-6.000000,16401.000000,-24.000000,-1.000000,1.000000
15.025859,0.000000,-6.000000,16378.000000,0.000000,-6.000000,13.000000
15.026788,1.000000,-6.000000,16409.000000,25.000000,-19.000000,6.000000
15.029375,3.000000,-5.000000,16380.000000,-244.000000,15.000000,-2.000000
15.030689,8.000000,7.000000,16391.000000,8.000000,-4.000000,-5.000000
15.032855,1.000000,14.000000,16374.000000,9.000000,-19.000000,-20.000000
15.035163,3.000000,7.000000,16410.000000,21.000000,-8.000000,5.000000
15.043569,-6.000000,3.000000,16416.000000,2.000000,13.000000,2.000000
15.058567,-7.000000,9.000000,16411.000000,7.000000,1.000000,20.000000
15.136986,1.000000,-5.000000,16374.000000,3.000000,-3.000000,4.000000
15.138275,3.000000,8.000000,16391.000000,0.000000,-19.000000,1.000000
15.138827,3.000000,14.000000,16405.000000,10.000000,-1.000000,28.000000
15.139240,3.000000,-5.000000,16391.000000,14.000000,16.000000,16.000000
15.139733,-9.000000,-12.000000,16404.000000,-1.000000,10.000000,-4.000000
15.140135,-14.000000,0.000000,16402.000000,-3.000000,6.000000,-21.000000
15.140612,14.000000,3.000000,16386.000000,1.000000,-5.000000,-6.000000
15.141012,5.000000,3.000000,16404.000000,-9.000000,12.000000,-23.000000
15.152175,-2.000000,4.000000,16392.000000,-16.000000,29.000000,-15.000000
15.153485,2.000000,2.000000,16406.000000,-8.000000,12.000000,-9.000000
15.167883,-6.000000,6.000000,16403.000000,7.000000,3.000000,-3.000000
15.168783,-13.000000,3.000000,16399.000000,10.000000,13.000000,-12.000000
15.270337,-22.000000,-3.000000,16394.000000,-6.000000,-10.000000,-12.000000
15.273659,17.000000,6.000000,16391.000000,28.000000,0.000000,2.000000
15.274465,7.000000,-1.000000,16395.000000,-1.000000,-7.000000,21.000000
15.275157,3.000000,7.000000,16389.000000,-3.000000,-16.000000,9.000000
15.276858,-1.000000,16.000000,16376.000000,-8.000000,-10.000000,-4.000000
15.279046,-2.000000,17.000000,16382.000000,-3.000000,10.000000,-7.000000
15.280907,-5.000000,4.000000,16391.000000,-25.000000,-12.000000,-20.000000
15.281651,1.000000,1.000000,16395.000000,-28.000000,7.000000,5.000000
15.282264,-15.000000,1.000000,16371.000000,-16.000000,2.000000,-12.000000
15.283476,-3.000000,1.000000,16398.000000,-20.000000,4.000000,4.000000
15.291401,-11.000000,0.000000,16383.000000,-18.000000,6.000000,0.000000
15.293404,-6.000000,-11.000000,16377.000000,-16.000000,-3.000000,17.000000
15.377429,0.000000,0.000000,16390.000000,-8.000000,-7.000000,-21.000000
15.380772,-6.000000,-2.000000,16381.000000,13.000000,8.000000,7.000000
15.382795,2.000000,1.000000,16399.000000,15.000000,-9.000000,9.000000
15.384939,-5.000000,-4.000000,16381.000000,27.000000,23.000000,27.000000
15.386814,-2.000000,-5.000000,16389.000000,1.000000,18.000000,13.000000
15.388692,-5.000000,9.000000,16388.000000,3.000000,-9.000000,-5.000000
15.390590,-3.000000,-1.000000,16403.000000,-4.000000,-22.000000,-14.000000
15.392114,3.000000,5.000000,16395.000000,-9.000000,-12.000000,-2.000000
15.392998,-1.000000,-2.000000,16410.000000,11.000000,2.000000,-13.000000
15.399948,7.000000,8.000000,16378.000000,5.000000,-3.000000,21.000000
15.401074,-1.000000,0.000000,16392.000000,31.000000,-4.000000,17.000000
15.416055,3.000000,1.000000,16380.000000,-5.000000,14.000000,6.000000
15.488446,12.000000,-5.000000,16385.000000,16.000000,3.000000,12.000000
15.489662,6.000000,-1.000000,16372.000000,19.000000,11.000000,10.000000
15.490166,5.000000,-5.000000,16404.000000,14.000000,-2.000000,6.000000
15.490619,-3.000000,2.000000,16388.000000,10.000000,14.000000,10.000000
15.491050,-5.000000,2.000000,16397.000000,-16.000000,9.000000,9.000000
15.491438,-5.000000,0.000000,16374.000000,0.000000,-3.000000,19.000000
15.491924,-5.000000,6.000000,16395.000000,10.000000,-12.000000,15.000000
15.493321,-13.000000,3.000000,16402.000000,17.000000,10.000000,7.000000
15.509194,-13.000000,2.000000,16374.000000,6.000000,14.000000,-13.000000
15.511094,-3.000000,9.000000,16406.000000,-18.000000,0.000000,2.000000
15.524758,4.000000,-5.000000,16404.000000,1.000000,0.000000,2.000000
15.609666,5.000000,9.000000,16397.000000,4.000000,9.000000,1.000000
15.610756,1.000000,-6.000000,16367.000000,-4.000000,-26.000000,7.000000
15.611261,-2.000000,13.000000,16384.000000,-27.000000,10.000000,4.000000
15.611767,16.000000,-3.000000,16403.000000,14.000000,3.000000,11.000000
15.613008,0.000000,3.000000,16368.000000,26.000000,-3.000000,6.000000
15.613748,9.000000,-9.000000,16379.000000,2.000000,4.000000,7.000000
15.614348,1.000000,-12.000000,16381.000000,-5.000000,8.000000,9.000000
15.614956,9.000000,0.000000,16395.000000,2.000000,-26.000000,-1.000000
15.617805,-7.000000,-3.000000,16391.000000,-22.000000,3.000000,-21.000000
15.619669,4.000000,3.000000,16383.000000,-22.000000,-20.000000,-8.000000
15.633036,-3.000000,5.000000,16410.000000,0.000000,7.000000,-3.000000
15.648920,-8.000000,-5.000000,16362.000000,6.000000,-13.000000,-1.000000
15.650545,-7.000000,19.000000,16384.000000,-3.000000,19.000000,-3.000000
15.721008,17.000000,1.000000,16383.000000,-10.000000,6.000000,8.000000
15.722937,4.000000,-4.000000,16394.000000,-19.000000,8.000000,-13.000000
15.723650,1.000000,-2.000000,16409.000000,8.000000,13.000000,-3.000000
15.724092,6.000000,7.000000,16408.000000,-8.000000,18.000000,-11.000000
15.724590,-2.000000,7.000000,16362.000000,23.000000,-35.000000,-8.000000
15.725009,1.000000,-5.000000,16398.000000,-23.000000,11.000000,-6.000000
15.726411,2.000000,7.000000,16371.000000,5.000000,-19.000000,11.000000
15.742358,-3.000000,11.000000,16376.000000,3.000000,12.000000,14.000000
15.744260,-4.000000,15.000000,16382.000000,4.000000,0.000000,1.000000
15.758237,-2.000000,4.000000,16397.000000,35.000000,7.000000,11.000000
15.759185,-14.000000,-5.000000,16400.000000,-13.000000,2.000000,-1.000000
15.836716,-7.000000,7.000000,16365.000000,2.000000,0.000000,-5.000000
15.838034,-3.000000,9.000000,16405.000000,-23.000000,-8.000000,-17.000000
15.838658,13.000000,3.000000,16376.000000,-29.000000,-4.000000,-8.000000
15.839128,15.000000,-2.000000,16397.000000,-10.000000,19.000000,-19.000000
15.839541,7.000000,-1.000000,16394.000000,12.000000,9.000000,-20.000000
15.840052,-4.000000,2.000000,16389.000000,-10.000000,14.000000,-19.000000
15.840551,8.000000,6.000000,16404.000000,-9.000000,5.000000,-9.000000
15.841051,4.000000,2.000000,16397.000000,-4.000000,-7.000000,-13.000000
15.854600,-5.000000,-5.000000,16389.000000,-4.000000,1.000000,-2.000000
15.869880,-1.000000,15.000000,16395.000000,0.000000,9.000000,-1.000000
15.870759,-9.000000,6.000000,16377.000000,-8.000000,-19.000000,-2.000000
15.953673,-6.000000,23.000000,16390.000000,-9.000000,-16.000000,-17.000000
15.956374,-8.000000,7.000000,16382.000000,-10.000000,7.000000,4.000000
15.957444,-3.000000,0.000000,16400.000000,1.000000,7.000000,5.000000
15.958123,7.000000,-4.000000,16394.000000,-9.000000,-3.000000,-4.000000
15.958784,-3.000000,4.000000,16379.000000,-20.000000,-5.000000,-4.000000
15.959272,-2.000000,9.000000,16403.000000,-27.000000,9.000000,-33.000000
15.959859,-5.000000,-12.000000,16390.000000,-19.000000,13.000000,-2.000000
15.962433,-7.000000,1.000000,16397.000000,-4.000000,22.000000,-13.000000
15.964055,5.000000,4.000000,16405.000000,7.000000,0.000000,6.000000
15.977678,-3.000000,0.000000,16386.000000,-4.000000,3.000000,19.000000
15.978847,-5.000000,3.000000,16395.000000,3.000000,-12.000000,-18.000000
16.079928,-3.000000,13.000000,16378.000000,-4.000000,15.000000,-10.000000
16.081730,-1.000000,8.000000,16400.000000,-9.000000,3.000000,8.000000
16.082609,4.000000,11.000000,16387.000000,30.000000,-10.000000,1.000000
16.084094,8.000000,3.000000,16387.000000,-7.000000,3.000000,0.000000
16.085789,-6.000000,6.000000,16379.000000,-11.000000,-12.000000,-8.000000
16.087551,9.000000,8.000000,16407.000000,-19.000000,-13.000000,-25.000000
16.088409,-3.000000,2.000000,16405.000000,-12.000000,-23.000000,-9.000000
16.089765,4.000000,9.000000,16396.000000,-14.000000,-13.000000,-2.000000
16.091597,0.000000,-3.000000,16384.000000,-10.000000,6.000000,-12.000000
16.093728,-2.000000,-4.000000,16379.000000,18.000000,-14.000000,8.000000
16.101312,4.000000,-1.000000,16401.000000,5.000000,-8.000000,-1.000000
16.102521,-9.000000,5.000000,16410.000000,-10.000000,7.000000,-14.000000
16.116782,10.000000,4.000000,16387.000000,-40.000000,16.000000,-5.000000
16.194704,-12.000000,0.000000,16401.000000,-17.000000,14.000000,-10.000000
16.196644,-5.000000,26.000000,16384.000000,6.000000,0.000000,-22.000000
16.197585,-7.000000,1.000000,16391.000000,13.000000,10.000000,-9.000000
16.198194,4.000000,13.000000,16390.000000,28.000000,1.000000,1.000000
16.198763,-5.000000,18.000000,16387.000000,16.000000,17.000000,-8.000000
16.199182,4.000000,-1.000000,16374.000000,5.000000,3.000000,-5.000000
16.199665,5.000000,8.000000,16401.000000,-13.000000,15.000000,6.000000
16.200198,9.000000,-17.000000,16417.000000,-5.000000,5.000000,-8.000000
16.210302,-6.000000,8.000000,16399.000000,7.000000,13.000000,-16.000000
16.212716,11.000000,-4.000000,16402.000000,2.000000,19.000000,-16.000000
16.225986,-2.000000,-4.000000,16379.000000,15.000000,-9.000000,-23.000000
16.305808,-9.000000,10.000000,16374.000000,-1.000000,0.000000,-8.000000
16.307221,-22.000000,-9.000000,16396.000000,-10.000000,-21.000000,12.000000
16.307749,-5.000000,-3.000000,16385.000000,-12.000000,-8.000000,4.000000
16.308168,17.000000,0.000000,16383.000000,-13.000000,-24.000000,-8.000000
16.308603,-4.000000,19.000000,16374.000000,-15.000000,-5.000000,12.000000
16.309028,2.000000,-3.000000,16366.000000,-6.000000,2.000000,4.000000
16.309457,6.000000,2.000000,16393.000000,-7.000000,-12.000000,-12.000000
16.309926,4.000000,3.000000,16404.000000,-11.000000,0.000000,-6.000000
16.320833,-5.000000,9.000000,16388.000000,-18.000000,7.000000,0.000000
16.322462,-5.000000,15.000000,16376.000000,-2.000000,10.000000,0.000000
16.336631,-2.000000,4.000000,16368.000000,7.000000,-15.000000,4.000000
16.439138,-4.000000,10.000000,16390.000000,5.000000,-10.000000,15.000000
16.442884,-6.000000,9.000000,16379.000000,-23.000000,4.000000,-2.000000
16.444942,-4.000000,5.000000,16396.000000,-4.000000,1.000000,-1.000000
16.446980,5.000000,-2.000000,16390.000000,-27.000000,-1.000000,2.000000
16.448684,1.000000,-2.000000,16402.000000,0.000000,-3.000000,12.000000
16.450617,4.000000,-9.000000,16381.000000,-5.000000,-4.000000,-1.000000
16.453176,5.000000,-5.000000,16382.000000,-1.000000,-1.000000,4.000000
16.454385,-5.000000,3.000000,16411.000000,-21.000000,12.000000,-11.000000
16.455076,-9.000000,10.000000,16394.000000,2.000000,-9.000000,4.000000
16.456368,-4.000000,8.000000,16388.000000,1.000000,17.000000,-8.000000
16.457278,2.000000,12.000000,16406.000000,29.000000,-26.000000,17.000000
16.460576,-3.000000,8.000000,16395.000000,1.000000,6.000000,8.000000
16.461860,-4.000000,4.000000,16393.000000,10.000000,13.000000,2.000000
16.591051,7.000000,7.000000,16404.000000,5.000000,-2.000000,-4.000000
16.594180,1.000000,8.000000,16388.000000,-2.000000,1.000000,1.000000
16.595954,-2.000000,17.000000,16392.000000,-4.000000,20.000000,-14.000000
16.597704,-5.000000,6.000000,16368.000000,-19.000000,11.000000,-23.000000
16.599353,-3.000000,-3.000000,16384.000000,25.000000,-2.000000,3.000000
16.601183,4.000000,-2.000000,16386.000000,-4.000000,7.000000,11.000000
16.603033,2.000000,-2.000000,16374.000000,-20.000000,-15.000000,2.000000
16.604608,-6.000000,-3.000000,16407.000000,-9.000000,10.000000,-2.000000
16.605306,-1.000000,-3.000000,16384.000000,27.000000,-13.000000,10.000000
16.605966,-3.000000,-12.000000,16383.000000,-2.000000,5.000000,1.000000
16.606454,1.000000,21.000000,16386.000000,19.000000,5.000000,5.000000
16.607023,-1.000000,0.000000,16389.000000,8.000000,8.000000,-14.000000
16.607634,4.000000,-4.000000,16397.000000,12.000000,4.000000,7.000000
16.608151,-9.000000,15.000000,16389.000000,-10.000000,-1.000000,0.000000
16.616495,-3.000000,2.000000,16393.000000,22.000000,-12.000000,15.000000
16.631974,0.000000,20.000000,16382.000000,-6.000000,8.000000,-5.000000
16.724640,4.000000,-2.000000,16383.000000,-21.000000,8.000000,-8.000000
16.728350,0.000000,-11.000000,16402.000000,-4.000000,-13.000000,2.000000
16.730066,6.000000,2.000000,16408.000000,-7.000000,-18.000000,14.000000
16.731379,-4.000000,9.000000,16406.000000,-27.000000,-6.000000,-6.000000
16.732101,-5.000000,-2.000000,16397.000000,4.000000,-47.000000,-1.000000
16.732752,-8.000000,18.000000,16391.000000,-9.000000,-2.000000,-8.000000
16.733423,-7.000000,-4.000000,16415.000000,-22.000000,28.000000,-15.000000
16.733902,-9.000000,4.000000,16412.000000,7.000000,-2.000000,-5.000000
16.734450,-3.000000,-1.000000,16406.000000,-13.000000,6.000000,-7.000000
16.734907,-10.000000,7.000000,16381.000000,-24.000000,2.000000,-6.000000
16.740911,3.000000,14.000000,16403.000000,-14.000000,-3.000000,-15.000000
16.742074,1.000000,10.000000,16384.000000,-3.000000,1.000000,-4.000000
16.756129,6.000000,-6.000000,16391.000000,-1.000000,-21.000000,34.000000
16.837211,6.000000,1.000000,16412.000000,-9.000000,-21.000000,14.000000
16.840028,20.000000,-1.000000,16373.000000,28.000000,-2.000000,13.000000
16.840848,1.000000,10.000000,16386.000000,0.000000,18.000000,-6.000000
16.841509,-1.000000,-1.000000,16380.000000,15.000000,-3.000000,-4.000000
16.842037,-3.000000,-5.000000,16384.000000,-19.000000,8.000000,-9.000000
16.842678,2.000000,-5.000000,16378.000000,11.000000,-2.000000,-3.000000
16.843227,-5.000000,-5.000000,16365.000000,-3.000000,3.000000,-4.000000
16.843826,-5.000000,-1.000000,16385.000000,16.000000,-3.000000,6.000000
16.850346,0.000000,9.000000,16396.000000,-11.000000,-25.000000,-4.000000
16.851978,0.000000,6.000000,16394.000000,7.000000,-17.000000,-28.000000
16.865679,-4.000000,3.000000,16391.000000,-1.000000,-5.000000,-27.000000
16.942874,3.000000,4.000000,16405.000000,-17.000000,13.000000,-22.000000
16.944048,3.000000,5.000000,16390.000000,-27.000000,-5.000000,-2.000000
16.944566,1.000000,8.000000,16394.000000,-9.000000,-14.000000,2.000000
16.944979,14.000000,-6.000000,16400.000000,4.000000,-12.000000,-11.000000
16.945483,-3.000000,13.000000,16396.000000,-5.000000,-5.000000,-27.000000
16.946238,3.000000,0.000000,16396.000000,-16.000000,13.000000,-21.000000
16.946700,0.000000,0.000000,16398.000000,14.000000,5.000000,-8.000000
16.947163,-7.000000,-8.000000,16402.000000,-11.000000,6.000000,-18.000000
16.958910,0.000000,-17.000000,16378.000000,9.000000,4.000000,-4.000000
16.960755,2.000000,-6.000000,16408.000000,15.000000,-13.000000,-9.000000
16.976256,0.000000,7.000000,16409.000000,5.000000,-20.000000,-11.000000
17.124191,-8.000000,2.000000,16377.000000,-5.000000,-6.000000,8.000000
17.128082,-8.000000,11.000000,16375.000000,14.000000,-1.000000,0.000000
17.130336,5.000000,16.000000,16386.000000,-14.000000,-9.000000,-3.000000
17.131184,0.000000,2.000000,16410.000000,-13.000000,-8.000000,-10.000000
17.131912,6.000000,7.000000,16373.000000,-19.000000,-19.000000,-21.000000
17.132616,-9.000000,2.000000,16395.000000,8.000000,14.000000,-9.000000
17.133160,-1.000000,1.000000,16400.000000,3.000000,4.000000,17.000000
17.133867,0.000000,8.000000,16388.000000,18.000000,-13.000000,3.000000
17.134506,0.000000,15.000000,16378.000000,7.000000,-8.000000,-14.000000
17.135008,-6.000000,4.000000,16407.000000,0.000000,-2.000000,-22.000000
17.135872,4.000000,11.000000,16392.000000,-28.000000,-12.000000,-3.000000
17.136722,-15.000000,-8.000000,16392.000000,13.000000,-4.000000,-2.000000
17.137424,8.000000,1.000000,16394.000000,8.000000,13.000000,1.000000
17.137938,16.000000,-3.000000,16413.000000,-22.000000,-9.000000,-3.000000
17.138614,5.000000,-3.000000,16373.000000,12.000000,-9.000000,-10.000000
17.139122,7.000000,2.000000,16396.000000,3.000000,11.000000,-13.000000
17.146749,-1.000000,4.000000,16411.000000,17.000000,-10.000000,8.000000
17.244651,-3.000000,7.000000,16407.000000,-15.000000,-7.000000,-18.000000
17.246819,-2.000000,2.000000,16405.000000,3.000000,-15.000000,-4.000000
17.247525,4.000000,8.000000,16389.000000,-9.000000,-2.000000,-6.000000
17.248134,-9.000000,0.000000,16392.000000,16.000000,3.000000,1.000000
17.248606,-21.000000,-1.000000,16395.000000,4.000000,4.000000,3.000000
17.249188,1.000000,3.000000,16368.000000,-8.000000,-6.000000,1.000000
17.249665,7.000000,18.000000,16398.000000,-20.000000,-2.000000,-23.000000
17.250259,-4.000000,12.000000,16378.000000,3.000000,-1.000000,-24.000000
17.250712,-15.000000,3.000000,16388.000000,17.000000,12.000000,6.000000
17.251269,-3.000000,8.000000,16393.000000,10.000000,-15.000000,2.000000
17.256161,3.000000,-6.000000,16394.000000,3.000000,-12.000000,-8.000000
17.271717,-6.000000,4.000000,16380.000000,9.000000,-1.000000,-13.000000
17.272862,9.000000,0.000000,16400.000000,-8.000000,-17.000000,-1.000000
17.393050,3.000000,4.000000,16368.000000,-18.000000,-8.000000,-25.000000
17.397236,2.000000,2.000000,16399.000000,-8.000000,1.000000,-13.000000
17.398110,-5.000000,-8.000000,16404.000000,-8.000000,-1.000000,15.000000
17.399976,15.000000,1.000000,16391.000000,-10.000000,-2.000000,11.000000
17.401104,-1.000000,1.000000,16403.000000,-44.000000,0.000000,-2.000000
17.401814,-3.000000,-4.000000,16411.000000,-22.000000,-3.000000,14.000000
17.402383,-8.000000,-1.000000,16402.000000,2.000000,-2.000000,-13.000000
17.403521,0.000000,-1.000000,16391.000000,-13.000000,13.000000,-15.000000
17.404558,3.000000,4.000000,16383.000000,0.000000,-5.000000,-16.000000
17.407007,7.000000,21.000000,16390.000000,37.000000,-4.000000,-15.000000
17.408279,-10.000000,-2.000000,16403.000000,-3.000000,-10.000000,-18.000000
17.409033,5.000000,12.000000,16412.000000,-16.000000,-20.000000,-17.000000
17.410740,13.000000,-9.000000,16387.000000,-7.000000,-4.000000,-5.000000
17.411976,9.000000,-7.000000,16388.000000,-3.000000,2.000000,-4.000000
17.426393,10.000000,-2.000000,16372.000000,-8.000000,11.000000,-23.000000
17.528241,12.000000,-5.000000,16385.000000,-6.000000,12.000000,12.000000
17.531596,3.000000,0.000000,16411.000000,3.000000,-6.000000,6.000000
17.533505,0.000000,0.000000,16389.000000,0.000000,-5.000000,-5.000000
17.535419,-4.000000,6.000000,16379.000000,-4.000000,16.000000,-18.000000
17.537570,-5.000000,7.000000,16400.000000,23.000000,-14.000000,-9.000000
17.539563,-11.000000,9.000000,16383.000000,-5.000000,-9.000000,-25.000000
17.540560,-1.000000,10.000000,16395.000000,6.000000,-6.000000,-22.000000
17.541477,-11.000000,-2.000000,16389.000000,3.000000,16.000000,-1.000000
17.544445,-6.000000,7.000000,16406.000000,11.000000,-1.000000,8.000000
17.546755,-2.000000,-4.000000,16371.000000,-4.000000,13.000000,-6.000000
17.549119,10.000000,-2.000000,16379.000000,-14.000000,16.000000,10.000000
17.552528,-12.000000,-1.000000,16414.000000,8.000000,-9.000000,-5.000000
17.554650,2.000000,8.000000,16391.000000,-6.000000,-21.000000,-19.000000
17.568430,-10.000000,3.000000,16397.000000,-1.000000,-16.000000,-28.000000
17.569489,4.000000,17.000000,16399.000000,-3.000000,-7.000000,-2.000000
17.667117,14.000000,17.000000,16398.000000,4.000000,-13.000000,2.000000
