Time_s,AccX,AccY,AccZ,GyrX,GyrY,GyrZ
0.892479,0.000000,-6.000000,16381.000000,0.000000,-57.000000,12.000000
0.899351,9.000000,-6.000000,16391.000000,16.000000,-47.000000,14.000000
0.907468,22.000000,-6.000000,16384.000000,-15.000000,2.000000,-4.000000
0.923280,-3.000000,-9.000000,16369.000000,1.000000,10.000000,-7.000000
0.925898,-5.000000,1.000000,16374.000000,-20.000000,58.000000,-31.000000
0.983077,3.000000,-17.000000,16381.000000,6.000000,65.000000,-15.000000
0.984157,-5.000000,-18.000000,16373.000000,-43.000000,70.000000,-24.000000
0.984823,0.000000,-9.000000,16401.000000,-33.000000,40.000000,-6.000000
0.985301,16.000000,-9.000000,16391.000000,-55.000000,48.000000,-3.000000
0.985843,1.000000,12.000000,16380.000000,-51.000000,28.000000,5.000000
0.986312,-1.000000,1.000000,16404.000000,-55.000000,59.000000,2.000000
0.987606,5.000000,5.000000,16373.000000,-33.000000,41.000000,2.000000
0.998878,0.000000,10.000000,16401.000000,-67.000000,96.000000,3.000000
1.014416,-12.000000,-1.000000,16398.000000,-32.000000,103.000000,-10.000000
1.029786,-8.000000,7.000000,16388.000000,-29.000000,89.000000,-5.000000
1.031189,6.000000,-12.000000,16369.000000,-16.000000,73.000000,6.000000
1.100193,12.000000,-21.000000,16367.000000,-27.000000,88.000000,-15.000000
1.101463,-6.000000,-5.000000,16359.000000,-32.000000,147.000000,-56.000000
1.102246,-14.000000,-17.000000,16378.000000,-74.000000,161.000000,-67.000000
1.102858,-7.000000,-3.000000,16360.000000,-58.000000,141.000000,-101.000000
1.103533,5.000000,-21.000000,16388.000000,-101.000000,184.000000,-128.000000
1.104272,-18.000000,-26.000000,16391.000000,-87.000000,204.000000,-138.000000
1.107891,-14.000000,-22.000000,16402.000000,-52.000000,211.000000,-149.000000
1.108671,-19.000000,-9.000000,16369.000000,-56.000000,251.000000,-187.000000
1.123142,-44.000000,-18.000000,16369.000000,-94.000000,247.000000,-178.000000
1.138269,-43.000000,-16.000000,16384.000000,-62.000000,204.000000,-192.000000
1.139265,-43.000000,-31.000000,16408.000000,-41.000000,190.000000,-174.000000
1.211233,-51.000000,-9.000000,16390.000000,-36.000000,134.000000,-191.000000
1.212639,-79.000000,-50.000000,16391.000000,7.000000,60.000000,-161.000000
1.213373,-35.000000,-16.000000,16394.000000,-17.000000,16.000000,-134.000000
1.213932,-37.000000,-16.000000,16397.000000,-4.000000,61.000000,-133.000000
1.214381,-62.000000,-13.000000,16401.000000,-25.000000,71.000000,-110.000000
1.214824,-41.000000,-38.000000,16377.000000,-45.000000,54.000000,-72.000000
1.217125,-48.000000,-22.000000,16379.000000,-38.000000,16.000000,-73.000000
1.218128,-67.000000,-40.000000,16388.000000,-20.000000,6.000000,-80.000000
1.233224,-36.000000,-28.000000,16400.000000,-44.000000,-60.000000,-44.000000
1.322211,-19.000000,-19.000000,16376.000000,-10.000000,-60.000000,9.000000
1.324164,-25.000000,-19.000000,16364.000000,-27.000000,-33.000000,-9.000000
1.325676,-31.000000,-10.000000,16375.000000,-13.000000,-7.000000,-26.000000
1.326764,-39.000000,-11.000000,16388.000000,-7.000000,-4.000000,-21.000000
1.327400,-41.000000,-14.000000,16387.000000,-7.000000,0.000000,-13.000000
1.327919,-37.000000,-19.000000,16359.000000,25.000000,-43.000000,-23.000000
1.328359,-27.000000,-13.000000,16361.000000,10.000000,-61.000000,-11.000000
1.328835,-30.000000,-14.000000,16384.000000,20.000000,-57.000000,0.000000
1.329297,-43.000000,-30.000000,16389.000000,17.000000,-48.000000,10.000000
1.341088,-29.000000,-31.000000,16361.000000,-19.000000,-45.000000,-6.000000
1.341958,-34.000000,-27.000000,16377.000000,-1.000000,-53.000000,-16.000000
1.356782,-32.000000,-30.000000,16377.000000,5.000000,-10.000000,-18.000000
1.429846,-46.000000,-27.000000,16387.000000,6.000000,2.000000,-10.000000
1.430545,-38.000000,-16.000000,16375.000000,-13.000000,8.000000,-19.000000
1.431040,-34.000000,-21.000000,16395.000000,3.000000,22.000000,-3.000000
1.431417,-38.000000,-22.000000,16384.000000,22.000000,1.000000,0.000000
1.431841,-38.000000,-19.000000,16362.000000,3.000000,-2.000000,2.000000
1.432223,-38.000000,-25.000000,16390.000000,7.000000,-26.000000,-16.000000
1.432602,-35.000000,-24.000000,16378.000000,6.000000,-31.000000,-1.000000
1.434163,-42.000000,-25.000000,16398.000000,10.000000,-26.000000,0.000000
1.450139,-47.000000,-29.000000,16402.000000,-8.000000,-8.000000,14.000000
1.451634,-31.000000,-20.000000,16394.000000,29.000000,-21.000000,4.000000
1.465610,-27.000000,-18.000000,16391.000000,7.000000,18.000000,10.000000
1.541772,-25.000000,-32.000000,16382.000000,10.000000,-1.000000,-11.000000
1.542422,-29.000000,-26.000000,16375.000000,17.000000,20.000000,-14.000000
1.542947,-39.000000,-26.000000,16384.000000,12.000000,3.000000,-29.000000
1.543344,-29.000000,-16.000000,16377.000000,7.000000,-16.000000,-28.000000
1.544183,-32.000000,-18.000000,16382.000000,19.000000,-16.000000,-6.000000
1.544756,-34.000000,-20.000000,16360.000000,-11.000000,-27.000000,-7.000000
1.545142,-31.000000,-17.000000,16381.000000,-12.000000,-30.000000,-20.000000
1.545603,-28.000000,-14.000000,16384.000000,-11.000000,-5.000000,-14.000000
1.560249,-38.000000,-8.000000,16373.000000,0.000000,-13.000000,-10.000000
1.561061,-28.000000,-15.000000,16368.000000,13.000000,-27.000000,9.000000
1.575582,-35.000000,-19.000000,16388.000000,8.000000,-51.000000,32.000000
1.645773,-32.000000,-20.000000,16387.000000,11.000000,-42.000000,23.000000
1.646455,-29.000000,-31.000000,16386.000000,33.000000,-34.000000,7.000000
1.646825,-32.000000,-28.000000,16393.000000,19.000000,-40.000000,11.000000
1.647279,-33.000000,-34.000000,16395.000000,27.000000,-39.000000,13.000000
1.647607,-24.000000,-24.000000,16360.000000,46.000000,-32.000000,8.000000
1.647997,-13.000000,-33.000000,16399.000000,35.000000,-53.000000,-10.000000
1.648342,-44.000000,-17.000000,16383.000000,45.000000,-10.000000,-8.000000
1.653285,-57.000000,-17.000000,16374.000000,39.000000,-14.000000,-9.000000
1.668934,-49.000000,-39.000000,16408.000000,32.000000,-46.000000,21.000000
1.671097,-24.000000,-25.000000,16389.000000,53.000000,-79.000000,28.000000
1.685481,-38.000000,-22.000000,16367.000000,24.000000,-86.000000,11.000000
1.756928,-12.000000,-14.000000,16384.000000,49.000000,-101.000000,33.000000
1.758808,-10.000000,-16.000000,16394.000000,3.000000,-66.000000,13.000000
1.759465,-7.000000,-11.000000,16384.000000,43.000000,-67.000000,25.000000
1.759899,1.000000,-15.000000,16394.000000,18.000000,-73.000000,23.000000
1.760966,-27.000000,-21.000000,16389.000000,26.000000,-22.000000,13.000000
1.761615,-25.000000,-19.000000,16383.000000,9.000000,8.000000,-6.000000
1.762436,-15.000000,-14.000000,16385.000000,16.000000,-41.000000,-14.000000
1.763094,4.000000,-9.000000,16382.000000,23.000000,-7.000000,-10.000000
1.776673,-30.000000,-17.000000,16375.000000,39.000000,48.000000,-13.000000
1.793224,-25.000000,-16.000000,16385.000000,23.000000,66.000000,-16.000000
1.794802,-40.000000,-12.000000,16367.000000,41.000000,39.000000,-4.000000
1.861269,-17.000000,0.000000,16384.000000,-13.000000,18.000000,12.000000
1.861887,-16.000000,4.000000,16385.000000,9.000000,60.000000,-15.000000
1.862450,-21.000000,-40.000000,16413.000000,-27.000000,163.000000,-36.000000
1.862882,-80.000000,-50.000000,16399.000000,-16.000000,82.000000,-10.000000
1.863319,-45.000000,-15.000000,16400.000000,-8.000000,4.000000,-3.000000
1.863671,-17.000000,-4.000000,16378.000000,-42.000000,-23.000000,-15.000000
1.871225,-7.000000,-19.000000,16379.000000,-20.000000,20.000000,3.000000
1.872189,-17.000000,-27.000000,16392.000000,-23.000000,55.000000,6.000000
1.887512,-17.000000,-23.000000,16381.000000,-32.000000,73.000000,40.000000
1.969606,-10.000000,-12.000000,16358.000000,-97.000000,143.000000,-20.000000
1.970462,-41.000000,-17.000000,16382.000000,-41.000000,221.000000,0.000000
1.972090,-59.000000,-32.000000,16384.000000,-52.000000,229.000000,-3.000000
1.973767,-54.000000,-17.000000,16389.000000,-57.000000,164.000000,-8.000000
1.974510,-45.000000,-21.000000,16386.000000,-84.000000,130.000000,-10.000000
1.975073,-34.000000,-20.000000,16401.000000,-61.000000,159.000000,-2.000000
1.975629,-42.000000,-11.000000,16374.000000,-75.000000,196.000000,-15.000000
1.976220,-50.000000,-14.000000,16357.000000,-48.000000,219.000000,-27.000000
1.980506,-45.000000,-20.000000,16382.000000,-76.000000,180.000000,-51.000000
1.981242,-36.000000,-3.000000,16362.000000,-19.000000,165.000000,-51.000000
1.996565,-63.000000,-17.000000,16353.000000,-20.000000,161.000000,-44.000000
2.011856,-47.000000,-37.000000,16387.000000,-22.000000,201.000000,-48.000000
2.012860,-95.000000,-37.000000,16340.000000,-23.000000,226.000000,-68.000000
2.117859,-92.000000,-30.000000,16401.000000,-30.000000,153.000000,-78.000000
2.118640,-83.000000,-24.000000,16364.000000,-9.000000,74.000000,-59.000000
2.119100,-53.000000,-20.000000,16382.000000,1.000000,22.000000,-31.000000
2.119604,-76.000000,-4.000000,16383.000000,-20.000000,5.000000,-11.000000
2.119979,-70.000000,-48.000000,16365.000000,-47.000000,-60.000000,18.000000
2.120379,-85.000000,-49.000000,16391.000000,-45.000000,-99.000000,17.000000
2.120799,-109.000000,-47.000000,16377.000000,-25.000000,-107.000000,21.000000
2.121160,-92.000000,-78.000000,16435.000000,-3.000000,-191.000000,57.000000
2.121605,-57.000000,-37.000000,16399.000000,112.000000,-279.000000,84.000000
2.121998,-23.000000,26.000000,16313.000000,148.000000,-271.000000,40.000000
2.122368,-63.000000,-39.000000,16412.000000,53.000000,-191.000000,34.000000
2.137428,-39.000000,4.000000,16364.000000,102.000000,-188.000000,80.000000
2.152605,-42.000000,-19.000000,16375.000000,122.000000,-267.000000,120.000000
2.153367,17.000000,-19.000000,16396.000000,117.000000,-278.000000,112.000000
2.236877,-21.000000,-19.000000,16343.000000,129.000000,-177.000000,80.000000
2.238436,-34.000000,-40.000000,16403.000000,102.000000,-88.000000,115.000000
2.239250,9.000000,23.000000,16339.000000,75.000000,-33.000000,137.000000
2.239750,13.000000,-8.000000,16386.000000,-5.000000,49.000000,59.000000
2.240301,-13.000000,6.000000,16354.000000,-67.000000,222.000000,-1.000000
2.240694,-10.000000,-12.000000,16391.000000,-79.000000,349.000000,-24.000000
2.241140,-45.000000,5.000000,16378.000000,-113.000000,436.000000,-41.000000
2.241488,-46.000000,-1.000000,16391.000000,-140.000000,412.000000,-47.000000
2.246622,-57.000000,-20.000000,16374.000000,-140.000000,418.000000,-48.000000
2.262077,-69.000000,-22.000000,16378.000000,-119.000000,340.000000,-67.000000
2.263441,-92.000000,-37.000000,16374.000000,-85.000000,286.000000,-89.000000
2.278627,-66.000000,-35.000000,16397.000000,-79.000000,143.000000,-155.000000
2.280206,-72.000000,-36.000000,16374.000000,-69.000000,110.000000,-186.000000
2.336324,-72.000000,-9.000000,16320.000000,-33.000000,114.000000,-192.000000
2.337189,-42.000000,-14.000000,16344.000000,-40.000000,109.000000,-192.000000
2.337619,-100.000000,-31.000000,16369.000000,28.000000,86.000000,-216.000000
2.338097,-85.000000,-39.000000,16386.000000,-23.000000,69.000000,-163.000000
2.339681,-76.000000,-34.000000,16389.000000,-8.000000,64.000000,-102.000000
2.340369,-65.000000,-29.000000,16385.000000,-16.000000,91.000000,-44.000000
2.356089,-88.000000,-31.000000,16385.000000,0.000000,81.000000,1.000000
2.370551,-91.000000,-24.000000,16364.000000,-31.000000,13.000000,-3.000000
2.371663,-76.000000,-18.000000,16362.000000,-43.000000,-11.000000,3.000000
2.426821,-76.000000,-21.000000,16371.000000,-48.000000,-22.000000,2.000000
2.427582,-67.000000,-25.000000,16373.000000,-18.000000,5.000000,8.000000
2.428015,-50.000000,-15.000000,16374.000000,-41.000000,71.000000,-32.000000
2.428495,-64.000000,-29.000000,16382.000000,-12.000000,94.000000,-61.000000
2.428839,-89.000000,-29.000000,16370.000000,-16.000000,121.000000,-96.000000
2.434213,-89.000000,-38.000000,16372.000000,-8.000000,68.000000,-108.000000
2.449654,-101.000000,-55.000000,16388.000000,3.000000,-16.000000,-90.000000
2.450444,-107.000000,-46.000000,16375.000000,-2.000000,-18.000000,-87.000000
2.466339,-105.000000,-43.000000,16371.000000,1.000000,-40.000000,-34.000000
2.528127,-101.000000,-31.000000,16386.000000,35.000000,-109.000000,32.000000
2.528732,-90.000000,-130.000000,16503.000000,-13.000000,-123.000000,40.000000
2.529195,-99.000000,-55.000000,16405.000000,31.000000,-105.000000,1.000000
2.529572,-62.000000,-39.000000,16401.000000,43.000000,-79.000000,10.000000
2.529895,-74.000000,-9.000000,16359.000000,33.000000,-61.000000,28.000000
2.530358,-42.000000,-24.000000,16389.000000,8.000000,-30.000000,4.000000
2.530682,-81.000000,-12.000000,16359.000000,-12.000000,86.000000,-12.000000
2.545174,-79.000000,-18.000000,16395.000000,-56.000000,146.000000,-34.000000
2.561196,-99.000000,-22.000000,16371.000000,-45.000000,120.000000,-21.000000
2.561991,-77.000000,-35.000000,16393.000000,-46.000000,31.000000,-19.000000
2.637292,-79.000000,-24.000000,16391.000000,-43.000000,39.000000,-15.000000
2.638922,-89.000000,-38.000000,16404.000000,-22.000000,29.000000,-9.000000
2.639691,-90.000000,-40.000000,16395.000000,-13.000000,15.000000,-32.000000
2.640196,-68.000000,-53.000000,16398.000000,-11.000000,89.000000,-54.000000
2.640659,-93.000000,-58.000000,16378.000000,-44.000000,158.000000,-47.000000
2.641034,-92.000000,-56.000000,16392.000000,-31.000000,103.000000,-12.000000
2.641428,-102.000000,-36.000000,16367.000000,-35.000000,9.000000,18.000000
2.641858,-104.000000,-31.000000,16385.000000,-9.000000,-115.000000,29.000000
2.654913,-90.000000,-28.000000,16379.000000,-5.000000,-166.000000,48.000000
2.670309,-65.000000,-33.000000,16386.000000,6.000000,-197.000000,50.000000
2.671096,-67.000000,-21.000000,16398.000000,22.000000,-173.000000,17.000000
2.743328,-46.000000,-31.000000,16385.000000,52.000000,-160.000000,14.000000
2.743916,-44.000000,-22.000000,16389.000000,30.000000,-85.000000,-10.000000
2.744332,-37.000000,-19.000000,16375.000000,32.000000,10.000000,-28.000000
2.744659,-77.000000,-33.000000,16399.000000,7.000000,100.000000,-40.000000
2.745060,-90.000000,-31.000000,16387.000000,-3.000000,137.000000,-57.000000
2.745388,-90.000000,-30.000000,16379.000000,-8.000000,102.000000,-36.000000
2.748012,-116.000000,-42.000000,16367.000000,7.000000,47.000000,7.000000
2.748473,-114.000000,-33.000000,16393.000000,-57.000000,-13.000000,-8.000000
2.763753,-120.000000,-30.000000,16397.000000,-46.000000,-113.000000,9.000000
2.779337,-82.000000,-37.000000,16389.000000,-70.000000,-169.000000,23.000000
2.780301,-79.000000,-42.000000,16389.000000,-27.000000,-192.000000,43.000000
2.853064,-61.000000,-35.000000,16405.000000,-27.000000,-158.000000,39.000000
2.853992,-55.000000,-36.000000,16406.000000,-9.000000,-93.000000,34.000000
2.855548,-44.000000,-43.000000,16401.000000,-1.000000,-73.000000,14.000000
2.856353,-61.000000,-34.000000,16399.000000,36.000000,-25.000000,-4.000000
2.856955,-60.000000,-17.000000,16385.000000,35.000000,6.000000,0.000000
2.857335,-81.000000,-110.000000,16494.000000,-7.000000,6.000000,-3.000000
2.858445,-76.000000,-36.000000,16399.000000,17.000000,-14.000000,-16.000000
2.859311,-74.000000,-31.000000,16400.000000,0.000000,-36.000000,4.000000
2.873541,-66.000000,-16.000000,16383.000000,1.000000,-91.000000,4.000000
2.889961,-43.000000,-37.000000,16381.000000,-9.000000,-56.000000,-12.000000
2.892482,-54.000000,-36.000000,16398.000000,-21.000000,22.000000,-20.000000
2.961168,-69.000000,-34.000000,16385.000000,-35.000000,108.000000,-18.000000
2.962484,-64.000000,-34.000000,16387.000000,-49.000000,139.000000,-43.000000
2.963101,-80.000000,-16.000000,16392.000000,-46.000000,161.000000,-38.000000
2.964040,-73.000000,-33.000000,16403.000000,-96.000000,144.000000,-36.000000
2.964663,-75.000000,-31.000000,16395.000000,-62.000000,165.000000,-30.000000
2.965276,-100.000000,-27.000000,16397.000000,-29.000000,131.000000,-20.000000
2.967758,-88.000000,-38.000000,16397.000000,-34.000000,64.000000,-10.000000
2.968484,-84.000000,-38.000000,16374.000000,-39.000000,36.000000,-19.000000
2.984162,-78.000000,-36.000000,16375.000000,-10.000000,3.000000,-7.000000
2.999215,-81.000000,-51.000000,16400.000000,4.000000,30.000000,7.000000
3.000666,-92.000000,-45.000000,16396.000000,-18.000000,46.000000,17.000000
3.076728,-81.000000,-44.000000,16394.000000,0.000000,25.000000,6.000000
3.079369,-71.000000,-47.000000,16399.000000,-11.000000,4.000000,26.000000
3.080284,-87.000000,-44.000000,16396.000000,-34.000000,5.000000,0.000000
3.080812,-83.000000,-47.000000,16389.000000,2.000000,8.000000,8.000000
3.081360,-85.000000,-38.000000,16377.000000,-15.000000,1.000000,7.000000
3.082476,-85.000000,-39.000000,16380.000000,-27.000000,-27.000000,1.000000
3.083264,-55.000000,-13.000000,16353.000000,-30.000000,-65.000000,14.000000
3.091273,-84.000000,-28.000000,16377.000000,-48.000000,8.000000,3.000000
3.092287,-669.000000,57.000000,16210.000000,-80.000000,-341.000000,132.000000
3.106972,25.000000,-67.000000,16465.000000,-287.000000,-2438.000000,334.000000
3.181297,198.000000,-34.000000,16371.000000,-197.000000,-2268.000000,342.000000
3.182458,79.000000,-23.000000,16395.000000,-326.000000,-1761.000000,103.000000
3.183217,174.000000,-59.000000,16401.000000,-206.000000,-886.000000,295.000000
3.183812,205.000000,-159.000000,16520.000000,-106.000000,-423.000000,104.000000
3.184293,139.000000,-91.000000,16420.000000,171.000000,543.000000,-116.000000
3.184778,-47.000000,-11.000000,16347.000000,209.000000,1212.000000,-144.000000
3.185466,-55.000000,-55.000000,16377.000000,188.000000,1492.000000,-174.000000
3.186715,-269.000000,-26.000000,16322.000000,94.000000,1063.000000,-224.000000
3.199644,-102.000000,-29.000000,16383.000000,30.000000,160.000000,-173.000000
3.201030,-17.000000,-83.000000,16427.000000,-25.000000,-340.000000,-92.000000
3.216944,162.000000,-78.000000,16447.000000,61.000000,-263.000000,24.000000
3.287927,208.000000,-53.000000,16436.000000,134.000000,312.000000,-1.000000
3.290446,-130.000000,13.000000,16299.000000,226.000000,1073.000000,14.000000
3.292185,-128.000000,-37.000000,16378.000000,75.000000,950.000000,9.000000
3.293616,-126.000000,-39.000000,16349.000000,54.000000,231.000000,-22.000000
3.294223,76.000000,-40.000000,16427.000000,35.000000,8.000000,-82.000000
3.295230,-58.000000,-35.000000,16373.000000,55.000000,456.000000,-53.000000
3.296740,-137.000000,-27.000000,16361.000000,19.000000,759.000000,-35.000000
3.298782,-220.000000,-29.000000,16334.000000,-15.000000,409.000000,-90.000000
3.307986,-80.000000,-24.000000,16396.000000,-31.000000,-519.000000,-41.000000
3.309348,-19.000000,-42.000000,16400.000000,-17.000000,-120.000000,-22.000000
3.323942,-51.000000,-38.000000,16406.000000,-23.000000,98.000000,-23.000000
3.396916,-98.000000,-53.000000,16377.000000,-27.000000,81.000000,-23.000000
3.398121,-67.000000,-50.000000,16382.000000,22.000000,71.000000,-14.000000
3.398690,-61.000000,-47.000000,16385.000000,-1.000000,184.000000,-4.000000
3.399121,-83.000000,-41.000000,16357.000000,17.000000,158.000000,13.000000
3.399570,-142.000000,-44.000000,16366.000000,20.000000,-29.000000,10.000000
3.400197,-68.000000,-37.000000,16374.000000,7.000000,-214.000000,22.000000
3.400837,-54.000000,-43.000000,16371.000000,-38.000000,-237.000000,28.000000
3.401279,-58.000000,-36.000000,16393.000000,6.000000,-161.000000,24.000000
3.416327,-60.000000,-21.000000,16394.000000,21.000000,-111.000000,23.000000
3.431648,-39.000000,-41.000000,16385.000000,42.000000,-75.000000,21.000000
3.432787,-56.000000,-42.000000,16369.000000,45.000000,-16.000000,17.000000
3.512977,-64.000000,-37.000000,16378.000000,37.000000,66.000000,-3.000000
3.516065,-77.000000,-41.000000,16384.000000,3.000000,81.000000,-18.000000
3.517285,-81.000000,-49.000000,16386.000000,14.000000,11.000000,1.000000
3.517953,-72.000000,-40.000000,16377.000000,-9.000000,-78.000000,-7.000000
3.518543,-64.000000,-57.000000,16375.000000,31.000000,-101.000000,2.000000
3.518979,-70.000000,-45.000000,16389.000000,11.000000,-67.000000,0.000000
3.519872,-1134.000000,196.000000,15903.000000,49.000000,-410.000000,-138.000000
3.521520,-936.000000,26.000000,16429.000000,-620.000000,-5411.000000,-1592.000000
3.526407,56.000000,-19.000000,16361.000000,-1739.000000,-8688.000000,-739.000000
3.542050,608.000000,-282.000000,16818.000000,-2020.000000,-7028.000000,-435.000000
3.543039,342.000000,45.000000,16155.000000,-1103.000000,-937.000000,-49.000000
3.635199,176.000000,-204.000000,16515.000000,-1441.000000,-253.000000,-4.000000
3.637885,261.000000,-177.000000,16365.000000,-1292.000000,-459.000000,-31.000000
3.638906,274.000000,-201.000000,16334.000000,-1272.000000,-396.000000,-145.000000
3.639491,246.000000,-264.000000,16341.000000,-1357.000000,-260.000000,-316.000000
3.640098,175.000000,-187.000000,16486.000000,-1904.000000,-306.000000,-853.000000
3.641157,215.000000,-166.000000,16393.000000,-1912.000000,-286.000000,-1072.000000
3.642342,176.000000,-182.000000,16466.000000,-2063.000000,-329.000000,-976.000000
3.643090,249.000000,-280.000000,16359.000000,-1902.000000,-295.000000,-695.000000
3.643669,294.000000,-339.000000,16287.000000,-2246.000000,-420.000000,-838.000000
3.651969,274.000000,-412.000000,16334.000000,-2903.000000,-514.000000,-1184.000000
3.654604,184.000000,-391.000000,16563.000000,-2824.000000,-477.000000,-1299.000000
3.730343,243.000000,-366.000000,16435.000000,-1577.000000,-374.000000,-827.000000
3.731548,222.000000,-352.000000,16462.000000,-1234.000000,-428.000000,-572.000000
3.732119,287.000000,-433.000000,16379.000000,-918.000000,-388.000000,-359.000000
3.732550,299.000000,-491.000000,16402.000000,-827.000000,-391.000000,-383.000000
3.732960,240.000000,-370.000000,16425.000000,-871.000000,-394.000000,-617.000000
3.733373,288.000000,-460.000000,16418.000000,-936.000000,-457.000000,-694.000000
3.733781,308.000000,-501.000000,16392.000000,-830.000000,-453.000000,-666.000000
3.734228,309.000000,-501.000000,16413.000000,-663.000000,-426.000000,-690.000000
3.744553,309.000000,-449.000000,16417.000000,-634.000000,-374.000000,-730.000000
3.760197,278.000000,-459.000000,16454.000000,-490.000000,-383.000000,-670.000000
3.762044,296.000000,-488.000000,16442.000000,-626.000000,-504.000000,-687.000000
3.836118,310.000000,-521.000000,16437.000000,-831.000000,-688.000000,-782.000000
3.839095,345.000000,-567.000000,16397.000000,-875.000000,-785.000000,-857.000000
3.840566,331.000000,-548.000000,16409.000000,-837.000000,-785.000000,-914.000000
3.841922,327.000000,-515.000000,16417.000000,-762.000000,-797.000000,-960.000000
3.843210,276.000000,-393.000000,16458.000000,-783.000000,-848.000000,-947.000000
3.844481,330.000000,-437.000000,16408.000000,-874.000000,-955.000000,-748.000000
3.846924,434.000000,-298.000000,16171.000000,-919.000000,-994.000000,-484.000000
3.848887,381.000000,-566.000000,16413.000000,-991.000000,-897.000000,-139.000000
3.853235,369.000000,-602.000000,16474.000000,-981.000000,-1066.000000,-34.000000
3.869612,380.000000,-661.000000,16482.000000,-874.000000,-1162.000000,-63.000000
3.870899,726.000000,-990.000000,15917.000000,-1259.000000,-1622.000000,-380.000000
3.945180,504.000000,-866.000000,16358.000000,-824.000000,-1149.000000,-884.000000
3.946789,462.000000,-770.000000,16423.000000,-606.000000,-801.000000,-1502.000000
3.947416,503.000000,-584.000000,16342.000000,-418.000000,-577.000000,-1873.000000
3.947859,493.000000,-528.000000,16335.000000,-322.000000,-555.000000,-1753.000000
3.948248,482.000000,-489.000000,16395.000000,-215.000000,-382.000000,-1397.000000
3.948758,456.000000,-512.000000,16416.000000,-168.000000,-289.000000,-959.000000
3.949197,528.000000,-793.000000,16356.000000,-215.000000,-335.000000,-655.000000
3.962420,517.000000,-965.000000,16400.000000,-101.000000,-299.000000,-859.000000
3.963397,518.000000,-821.000000,16390.000000,-53.000000,-292.000000,-1622.000000
3.979401,481.000000,-580.000000,16406.000000,4.000000,-259.000000,-2173.000000
3.980541,498.000000,-456.000000,16368.000000,-54.000000,-266.000000,-2004.000000
4.059501,515.000000,-498.000000,16341.000000,11.000000,-183.000000,-1488.000000
4.060847,457.000000,-483.000000,16438.000000,58.000000,19.000000,-990.000000
4.061418,448.000000,-535.000000,16437.000000,30.000000,-22.000000,-629.000000
4.061863,490.000000,-561.000000,16400.000000,-23.000000,-163.000000,-453.000000
4.062351,489.000000,-569.000000,16375.000000,-18.000000,-172.000000,-288.000000
4.062769,483.000000,-607.000000,16405.000000,-85.000000,-159.000000,-57.000000
4.063238,494.000000,-605.000000,16414.000000,-85.000000,-200.000000,-15.000000
4.071647,508.000000,-642.000000,16381.000000,-89.000000,-181.000000,20.000000
4.072830,539.000000,-672.000000,16373.000000,16.000000,-40.000000,10.000000
4.087950,970.000000,-905.000000,15593.000000,869.000000,1273.000000,77.000000
4.090140,471.000000,-634.000000,16450.000000,1155.000000,1749.000000,60.000000
4.103190,461.000000,-638.000000,16423.000000,846.000000,1152.000000,46.000000
4.178923,477.000000,-665.000000,16141.000000,1065.000000,1293.000000,36.000000
4.180338,358.000000,-477.000000,16554.000000,1515.000000,1836.000000,51.000000
4.180820,383.000000,-557.000000,16472.000000,1126.000000,1435.000000,39.000000
4.181583,388.000000,-533.000000,16384.000000,981.000000,1158.000000,8.000000
4.182066,371.000000,-491.000000,16410.000000,949.000000,1122.000000,-7.000000
4.182613,351.000000,-520.000000,16412.000000,883.000000,1072.000000,-1.000000
4.183094,335.000000,-481.000000,16429.000000,844.000000,961.000000,-7.000000
4.183635,346.000000,-498.000000,16376.000000,786.000000,841.000000,-8.000000
4.197060,262.000000,-447.000000,16458.000000,686.000000,774.000000,11.000000
4.213217,293.000000,-459.000000,16453.000000,443.000000,411.000000,26.000000
4.215120,314.000000,-485.000000,16395.000000,299.000000,238.000000,16.000000
4.291201,323.000000,-475.000000,16363.000000,210.000000,186.000000,15.000000
4.292591,332.000000,-500.000000,16387.000000,146.000000,197.000000,10.000000
4.293181,331.000000,-515.000000,16362.000000,197.000000,203.000000,24.000000
4.293599,313.000000,-482.000000,16369.000000,250.000000,207.000000,33.000000
4.294042,308.000000,-468.000000,16389.000000,309.000000,187.000000,21.000000
4.294437,324.000000,-463.000000,16378.000000,279.000000,204.000000,-18.000000
4.294957,317.000000,-460.000000,16375.000000,266.000000,219.000000,8.000000
4.295545,310.000000,-466.000000,16385.000000,228.000000,180.000000,17.000000
4.306761,302.000000,-464.000000,16364.000000,185.000000,156.000000,4.000000
4.321706,301.000000,-468.000000,16370.000000,143.000000,148.000000,9.000000
4.323486,299.000000,-446.000000,16391.000000,186.000000,148.000000,9.000000
4.410316,300.000000,-461.000000,16387.000000,143.000000,108.000000,15.000000
4.411657,301.000000,-469.000000,16355.000000,134.000000,83.000000,9.000000
4.412228,291.000000,-482.000000,16352.000000,117.000000,107.000000,-29.000000
4.412781,291.000000,-457.000000,16394.000000,209.000000,138.000000,-10.000000
4.413277,295.000000,-452.000000,16388.000000,205.000000,123.000000,-7.000000
4.413883,289.000000,-457.000000,16406.000000,203.000000,57.000000,-18.000000
4.414672,295.000000,-448.000000,16369.000000,173.000000,25.000000,-17.000000
4.416678,281.000000,-439.000000,16354.000000,132.000000,61.000000,3.000000
4.417647,297.000000,-458.000000,16379.000000,107.000000,61.000000,-2.000000
4.430351,300.000000,-447.000000,16364.000000,116.000000,62.000000,-11.000000
4.431873,300.000000,-427.000000,16377.000000,109.000000,65.000000,-35.000000
4.445493,289.000000,-434.000000,16386.000000,97.000000,69.000000,-32.000000
4.514166,302.000000,-436.000000,16362.000000,62.000000,29.000000,-25.000000
4.515611,294.000000,-422.000000,16380.000000,49.000000,49.000000,-7.000000
4.516347,296.000000,-436.000000,16357.000000,27.000000,14.000000,-17.000000
4.517012,287.000000,-426.000000,16368.000000,18.000000,7.000000,-22.000000
4.517469,298.000000,-439.000000,16353.000000,46.000000,23.000000,-11.000000
4.517961,286.000000,-428.000000,16350.000000,79.000000,23.000000,-4.000000
4.518357,284.000000,-443.000000,16353.000000,89.000000,5.000000,-17.000000
4.524453,306.000000,-440.000000,16362.000000,127.000000,11.000000,-12.000000
4.539886,277.000000,-439.000000,16357.000000,74.000000,11.000000,-11.000000
4.542055,277.000000,-446.000000,16343.000000,27.000000,8.000000,-22.000000
4.555726,297.000000,-445.000000,16365.000000,36.000000,15.000000,-19.000000
4.631614,288.000000,-430.000000,16378.000000,81.000000,8.000000,4.000000
4.632778,279.000000,-429.000000,16358.000000,80.000000,7.000000,-21.000000
4.633502,271.000000,-432.000000,16354.000000,69.000000,23.000000,-24.000000
4.634305,276.000000,-440.000000,16359.000000,76.000000,12.000000,-1.000000
4.634822,277.000000,-421.000000,16378.000000,83.000000,25.000000,-5.000000
4.635550,294.000000,-426.000000,16361.000000,100.000000,9.000000,-13.000000
4.636819,290.000000,-438.000000,16368.000000,72.000000,19.000000,-27.000000
4.637375,291.000000,-425.000000,16362.000000,59.000000,-2.000000,-41.000000
4.650564,296.000000,-425.000000,16379.000000,25.000000,23.000000,-33.000000
4.652571,284.000000,-425.000000,16365.000000,8.000000,26.000000,-14.000000
4.665258,280.000000,-425.000000,16357.000000,-36.000000,10.000000,-17.000000
4.739627,276.000000,-430.000000,16371.000000,-27.000000,-13.000000,-8.000000
4.742185,287.000000,-432.000000,16376.000000,-5.000000,14.000000,-42.000000
4.743269,288.000000,-416.000000,16368.000000,14.000000,4.000000,-32.000000
4.744601,291.000000,-427.000000,16392.000000,-3.000000,9.000000,-9.000000
4.746209,298.000000,-431.000000,16366.000000,-2.000000,4.000000,-24.000000
4.747884,280.000000,-420.000000,16369.000000,-14.000000,9.000000,-25.000000
4.748961,289.000000,-432.000000,16382.000000,24.000000,-38.000000,-4.000000
4.749571,291.000000,-432.000000,16386.000000,9.000000,-7.000000,-17.000000
4.759359,296.000000,-431.000000,16387.000000,34.000000,-25.000000,-28.000000
4.761001,280.000000,-431.000000,16371.000000,10.000000,7.000000,-42.000000
4.774021,284.000000,-422.000000,16364.000000,50.000000,9.000000,-28.000000
4.846779,285.000000,-415.000000,16367.000000,40.000000,-3.000000,-34.000000
4.848094,280.000000,-425.000000,16363.000000,49.000000,-8.000000,-12.000000
4.848616,283.000000,-433.000000,16392.000000,18.000000,16.000000,-10.000000
4.849086,298.000000,-424.000000,16390.000000,-2.000000,34.000000,-16.000000
4.849530,290.000000,-423.000000,16378.000000,-13.000000,13.000000,-19.000000
4.849993,291.000000,-435.000000,16393.000000,-20.000000,1.000000,-25.000000
4.852667,273.000000,-433.000000,16355.000000,37.000000,-5.000000,-12.000000
4.853356,290.000000,-434.000000,16387.000000,18.000000,24.000000,-11.000000
4.869517,294.000000,-427.000000,16380.000000,58.000000,8.000000,13.000000
4.871081,288.000000,-413.000000,16352.000000,63.000000,1.000000,-1.000000
4.883962,289.000000,-425.000000,16397.000000,46.000000,6.000000,0.000000
4.962116,287.000000,-426.000000,16362.000000,1.000000,-7.000000,-24.000000
4.963360,287.000000,-425.000000,16366.000000,29.000000,2.000000,-16.000000
4.963943,283.000000,-426.000000,16350.000000,-14.000000,-2.000000,-23.000000
4.964395,304.000000,-423.000000,16369.000000,53.000000,3.000000,-11.000000
4.964835,300.000000,-434.000000,16349.000000,7.000000,23.000000,-32.000000
4.965523,294.000000,-423.000000,16379.000000,20.000000,14.000000,-19.000000
4.966190,291.000000,-412.000000,16343.000000,12.000000,17.000000,-8.000000
4.966877,292.000000,-429.000000,16379.000000,30.000000,0.000000,-15.000000
4.977827,277.000000,-416.000000,16343.000000,7.000000,-4.000000,-40.000000
4.979899,282.000000,-416.000000,16363.000000,23.000000,-4.000000,-7.000000
4.992775,283.000000,-420.000000,16358.000000,21.000000,1.000000,-20.000000
5.090965,287.000000,-425.000000,16385.000000,-5.000000,-20.000000,-6.000000
5.093586,279.000000,-415.000000,16362.000000,3.000000,-15.000000,-16.000000
5.094784,286.000000,-414.000000,16358.000000,4.000000,-5.000000,-46.000000
5.096544,290.000000,-431.000000,16384.000000,-2.000000,-3.000000,-36.000000
5.098078,292.000000,-416.000000,16350.000000,-8.000000,-17.000000,-14.000000
5.099192,285.000000,-409.000000,16395.000000,7.000000,-18.000000,-33.000000
5.099951,299.000000,-425.000000,16373.000000,10.000000,-15.000000,-18.000000
5.102525,291.000000,-428.000000,16387.000000,-3.000000,1.000000,-13.000000
5.104426,293.000000,-433.000000,16382.000000,0.000000,9.000000,-3.000000
5.106556,289.000000,-437.000000,16394.000000,6.000000,-4.000000,-6.000000
5.108266,287.000000,-442.000000,16354.000000,22.000000,-39.000000,-23.000000
5.116717,282.000000,-433.000000,16381.000000,-10.000000,-2.000000,-12.000000
5.205594,278.000000,-433.000000,16388.000000,18.000000,7.000000,-12.000000
5.208007,282.000000,-431.000000,16383.000000,18.000000,5.000000,-7.000000
5.208643,286.000000,-420.000000,16371.000000,38.000000,-30.000000,-11.000000
5.209857,295.000000,-419.000000,16378.000000,-4.000000,7.000000,-25.000000
5.210456,274.000000,-427.000000,16351.000000,18.000000,-10.000000,-31.000000
5.211050,283.000000,-423.000000,16370.000000,4.000000,18.000000,-19.000000
5.211519,295.000000,-432.000000,16393.000000,23.000000,-14.000000,-19.000000
5.212121,298.000000,-421.000000,16389.000000,3.000000,-27.000000,-29.000000
5.212728,291.000000,-425.000000,16395.000000,30.000000,-14.000000,-40.000000
5.213361,290.000000,-440.000000,16386.000000,39.000000,-10.000000,-25.000000
5.225136,286.000000,-417.000000,16381.000000,36.000000,-11.000000,-15.000000
5.240387,290.000000,-417.000000,16365.000000,41.000000,-15.000000,-24.000000
5.241601,277.000000,-422.000000,16389.000000,34.000000,21.000000,-26.000000
5.317650,294.000000,-415.000000,16366.000000,-5.000000,-7.000000,-33.000000
5.319202,289.000000,-421.000000,16387.000000,38.000000,-1.000000,-17.000000
5.319825,287.000000,-415.000000,16386.000000,29.000000,-13.000000,-30.000000
5.320384,277.000000,-422.000000,16388.000000,7.000000,7.000000,-12.000000
5.320928,295.000000,-425.000000,16391.000000,9.000000,-15.000000,-19.000000
5.322196,289.000000,-416.000000,16369.000000,1.000000,-8.000000,-33.000000
5.323542,283.000000,-418.000000,16363.000000,16.000000,-14.000000,-26.000000
5.324900,297.000000,-421.000000,16391.000000,41.000000,-16.000000,-28.000000
5.334447,274.000000,-429.000000,16394.000000,16.000000,-2.000000,-22.000000
5.350910,288.000000,-420.000000,16377.000000,6.000000,-8.000000,-14.000000
5.352875,287.000000,-420.000000,16379.000000,27.000000,-1.000000,1.000000
5.430625,284.000000,-410.000000,16407.000000,-20.000000,24.000000,-9.000000
5.431714,272.000000,-418.000000,16375.000000,-26.000000,6.000000,-39.000000
5.432246,288.000000,-418.000000,16377.000000,-18.000000,9.000000,-25.000000
5.432624,280.000000,-414.000000,16368.000000,-12.000000,-38.000000,-22.000000
5.433068,279.000000,-407.000000,16360.000000,1.000000,-9.000000,-50.000000
5.433430,288.000000,-414.000000,16374.000000,11.000000,-31.000000,-48.000000
5.434016,275.000000,-424.000000,16385.000000,-18.000000,-3.000000,-19.000000
5.434430,282.000000,-427.000000,16391.000000,-36.000000,1.000000,-13.000000
5.444949,285.000000,-420.000000,16380.000000,-18.000000,-18.000000,-23.000000
5.460034,290.000000,-435.000000,16377.000000,3.000000,-17.000000,-36.000000
5.461026,290.000000,-439.000000,16394.000000,-33.000000,-13.000000,-30.000000
5.554296,276.000000,-427.000000,16394.000000,16.000000,-9.000000,-23.000000
5.558605,279.000000,-421.000000,16397.000000,8.000000,-5.000000,-15.000000
5.560843,267.000000,-420.000000,16392.000000,33.000000,-22.000000,-35.000000
5.562936,278.000000,-425.000000,16389.000000,33.000000,11.000000,-9.000000
5.564974,284.000000,-419.000000,16390.000000,46.000000,-37.000000,-33.000000
5.567059,296.000000,-419.000000,16394.000000,11.000000,6.000000,-8.000000
5.569153,284.000000,-411.000000,16366.000000,40.000000,0.000000,-49.000000
5.571380,286.000000,-419.000000,16392.000000,-5.000000,14.000000,-26.000000
5.573667,289.000000,-421.000000,16381.000000,-233.000000,15.000000,-44.000000
5.576157,288.000000,-412.000000,16383.000000,5.000000,-16.000000,-29.000000
5.578942,286.000000,-417.000000,16386.000000,-20.000000,27.000000,-37.000000
5.585297,285.000000,-419.000000,16397.000000,24.000000,-9.000000,-18.000000
5.704541,277.000000,-417.000000,16392.000000,50.000000,-10.000000,-16.000000
5.705855,284.000000,-411.000000,16389.000000,65.000000,-7.000000,2.000000
5.706541,276.000000,-415.000000,16385.000000,18.000000,17.000000,-11.000000
5.707129,279.000000,-416.000000,16396.000000,39.000000,-5.000000,-23.000000
5.707621,278.000000,-424.000000,16373.000000,-22.000000,16.000000,-33.000000
5.708263,280.000000,-418.000000,16376.000000,13.000000,-7.000000,-22.000000
5.709991,288.000000,-413.000000,16390.000000,-19.000000,-29.000000,-23.000000
5.711905,284.000000,-420.000000,16379.000000,18.000000,-19.000000,-10.000000
5.713438,279.000000,-415.000000,16400.000000,19.000000,8.000000,5.000000
5.715005,285.000000,-414.000000,16384.000000,-9.000000,12.000000,-21.000000
5.716577,292.000000,-416.000000,16370.000000,-7.000000,7.000000,-31.000000
5.718384,287.000000,-422.000000,16383.000000,29.000000,-13.000000,-12.000000
5.719953,284.000000,-415.000000,16386.000000,29.000000,-1.000000,-26.000000
5.725806,279.000000,-406.000000,16401.000000,16.000000,-19.000000,-10.000000
5.741858,275.000000,-410.000000,16385.000000,-5.000000,4.000000,-18.000000
5.825179,283.000000,-413.000000,16391.000000,33.000000,-31.000000,13.000000
5.826929,277.000000,-420.000000,16402.000000,-2.000000,-6.000000,-16.000000
5.827499,281.000000,-422.000000,16406.000000,-6.000000,8.000000,-26.000000
5.827919,278.000000,-427.000000,16390.000000,-14.000000,-5.000000,-17.000000
5.828392,278.000000,-417.000000,16401.000000,15.000000,-14.000000,9.000000
5.828777,290.000000,-419.000000,16396.000000,-3.000000,-11.000000,-22.000000
5.829213,294.000000,-412.000000,16388.000000,-4.000000,-1.000000,-15.000000
5.829612,271.000000,-412.000000,16374.000000,-1.000000,-15.000000,-20.000000
5.830011,283.000000,-413.000000,16399.000000,39.000000,-18.000000,-8.000000
5.835969,279.000000,-412.000000,16389.000000,3.000000,-18.000000,-36.000000
5.851306,281.000000,-416.000000,16391.000000,13.000000,14.000000,-44.000000
5.852290,282.000000,-412.000000,16388.000000,34.000000,20.000000,-14.000000
5.958282,272.000000,-413.000000,16387.000000,35.000000,-2.000000,-8.000000
5.959627,274.000000,-426.000000,16390.000000,45.000000,5.000000,-25.000000
5.960229,283.000000,-421.000000,16388.000000,15.000000,9.000000,-9.000000
5.960675,289.000000,-410.000000,16360.000000,3.000000,6.000000,-21.000000
5.961208,290.000000,-421.000000,16400.000000,-8.000000,-13.000000,-28.000000
5.963017,280.000000,-406.000000,16392.000000,-12.000000,-2.000000,-44.000000
5.963817,268.000000,-413.000000,16405.000000,-3.000000,-9.000000,-48.000000
5.964409,273.000000,-408.000000,16393.000000,-18.000000,0.000000,-30.000000
5.964955,279.000000,-414.000000,16384.000000,-11.000000,-9.000000,-24.000000
5.965812,280.000000,-414.000000,16380.000000,-13.000000,22.000000,-40.000000
5.966601,286.000000,-410.000000,16393.000000,-21.000000,4.000000,-4.000000
5.977756,277.000000,-425.000000,16402.000000,-24.000000,4.000000,-22.000000
5.978732,273.000000,-424.000000,16399.000000,6.000000,-23.000000,-24.000000
5.994274,281.000000,-424.000000,16386.000000,-2.000000,3.000000,-18.000000
6.105833,291.000000,-415.000000,16397.000000,10.000000,8.000000,-42.000000
6.108088,288.000000,-416.000000,16386.000000,15.000000,1.000000,-38.000000
6.108867,283.000000,-433.000000,16402.000000,14.000000,16.000000,-17.000000
6.109433,285.000000,-422.000000,16400.000000,11.000000,17.000000,-17.000000
6.109964,287.000000,-417.000000,16400.000000,41.000000,-15.000000,-21.000000
6.110440,272.000000,-412.000000,16392.000000,44.000000,-13.000000,-26.000000
6.110965,286.000000,-415.000000,16382.000000,-19.000000,6.000000,-25.000000
6.111437,270.000000,-417.000000,16389.000000,-20.000000,-30.000000,-44.000000
6.111948,274.000000,-411.000000,16405.000000,-29.000000,-28.000000,-5.000000
6.112411,274.000000,-409.000000,16405.000000,-9.000000,-2.000000,-19.000000
6.112897,284.000000,-411.000000,16407.000000,-17.000000,-30.000000,-31.000000
6.119132,293.000000,-410.000000,16390.000000,-7.000000,-9.000000,-21.000000
6.120164,288.000000,-415.000000,16381.000000,-8.000000,5.000000,7.000000
6.134368,274.000000,-420.000000,16402.000000,-39.000000,-24.000000,-18.000000
6.211095,285.000000,-420.000000,16404.000000,-9.000000,-8.000000,-19.000000
6.213594,291.000000,-419.000000,16415.000000,6.000000,-18.000000,-18.000000
6.214493,296.000000,-423.000000,16408.000000,14.000000,22.000000,4.000000
6.215065,292.000000,-418.000000,16409.000000,18.000000,3.000000,-32.000000
6.215769,277.000000,-415.000000,16398.000000,14.000000,-13.000000,-29.000000
6.216355,284.000000,-410.000000,16387.000000,-1.000000,-18.000000,-30.000000
6.216843,272.000000,-417.000000,16392.000000,5.000000,-1.000000,-23.000000
6.217433,279.000000,-415.000000,16410.000000,38.000000,-48.000000,-3.000000
6.228519,280.000000,-403.000000,16406.000000,2.000000,-20.000000,-9.000000
6.231057,278.000000,-410.000000,16398.000000,7.000000,-11.000000,-17.000000
6.243971,286.000000,-415.000000,16370.000000,-6.000000,27.000000,-14.000000
6.346889,288.000000,-411.000000,16393.000000,-2.000000,-26.000000,-23.000000
6.350483,280.000000,-405.000000,16399.000000,-6.000000,-2.000000,-30.000000
6.351415,285.000000,-413.000000,16386.000000,23.000000,2.000000,-7.000000
6.352438,294.000000,-413.000000,16375.000000,3.000000,8.000000,-26.000000
6.354340,288.000000,-425.000000,16412.000000,40.000000,26.000000,-9.000000
6.355701,277.000000,-416.000000,16405.000000,-11.000000,-8.000000,-30.000000
6.357488,286.000000,-416.000000,16408.000000,16.000000,-20.000000,-35.000000
6.359379,297.000000,-409.000000,16397.000000,17.000000,-13.000000,-14.000000
6.361141,277.000000,-418.000000,16406.000000,11.000000,0.000000,-38.000000
6.361828,275.000000,-427.000000,16397.000000,31.000000,-20.000000,-25.000000
6.362575,278.000000,-418.000000,16397.000000,19.000000,-13.000000,-34.000000
6.368860,279.000000,-422.000000,16401.000000,22.000000,-7.000000,-13.000000
6.369960,304.000000,-409.000000,16385.000000,-1.000000,23.000000,-26.000000
6.449270,291.000000,-404.000000,16399.000000,1.000000,0.000000,-28.000000
6.451986,273.000000,-406.000000,16392.000000,-26.000000,15.000000,-22.000000
6.453348,289.000000,-417.000000,16394.000000,4.000000,-9.000000,-21.000000
6.454308,279.000000,-414.000000,16396.000000,-7.000000,-7.000000,-26.000000
6.455971,273.000000,-410.000000,16389.000000,9.000000,-22.000000,-3.000000
6.457331,268.000000,-417.000000,16401.000000,-7.000000,9.000000,-41.000000
6.458166,277.000000,-410.000000,16389.000000,4.000000,-11.000000,-28.000000
6.458793,287.000000,-408.000000,16392.000000,-22.000000,12.000000,-42.000000
6.463323,286.000000,-409.000000,16395.000000,15.000000,-10.000000,-30.000000
6.479253,276.000000,-418.000000,16402.000000,-25.000000,-9.000000,-31.000000
6.481617,279.000000,-412.000000,16402.000000,-13.000000,-17.000000,-20.000000
6.557399,283.000000,-412.000000,16386.000000,-17.000000,12.000000,-38.000000
6.558665,281.000000,-414.000000,16394.000000,20.000000,-5.000000,-35.000000
6.559220,290.000000,-416.000000,16390.000000,20.000000,-17.000000,-42.000000
6.559646,280.000000,-407.000000,16403.000000,34.000000,-39.000000,-19.000000
6.560083,274.000000,-404.000000,16382.000000,24.000000,2.000000,-5.000000
6.560495,275.000000,-409.000000,16401.000000,4.000000,3.000000,-18.000000
6.560988,273.000000,-412.000000,16403.000000,-19.000000,2.000000,-49.000000
6.561411,282.000000,-415.000000,16397.000000,16.000000,-33.000000,-30.000000
6.573223,284.000000,-412.000000,16381.000000,-2.000000,9.000000,-35.000000
6.588672,281.000000,-413.000000,16398.000000,28.000000,13.000000,-13.000000
6.589656,281.000000,-405.000000,16395.000000,30.000000,-29.000000,-12.000000
6.673305,291.000000,-410.000000,16387.000000,35.000000,-22.000000,-1.000000
6.675510,289.000000,-418.000000,16396.000000,20.000000,-1.000000,-31.000000
6.676536,289.000000,-411.000000,16404.000000,25.000000,-17.000000,-15.000000
6.677968,293.000000,-412.000000,16379.000000,-2.000000,-10.000000,-31.000000
6.678920,284.000000,-415.000000,16376.000000,44.000000,-9.000000,-13.000000
6.679472,284.000000,-403.000000,16379.000000,8.000000,16.000000,-16.000000
6.680209,278.000000,-408.000000,16405.000000,12.000000,-3.000000,-26.000000
6.681795,285.000000,-406.000000,16393.000000,16.000000,-21.000000,-34.000000
6.682458,291.000000,-427.000000,16412.000000,4.000000,-6.000000,-29.000000
6.697266,289.000000,-409.000000,16397.000000,-8.000000,15.000000,-19.000000
6.780253,288.000000,-416.000000,16408.000000,11.000000,8.000000,-19.000000
6.781431,276.000000,-413.000000,16381.000000,24.000000,6.000000,-38.000000
6.781975,292.000000,-408.000000,16399.000000,8.000000,9.000000,-16.000000
6.782498,281.000000,-413.000000,16381.000000,-10.000000,-7.000000,-54.000000
6.782912,281.000000,-405.000000,16389.000000,-32.000000,-14.000000,-39.000000
6.783378,287.000000,-390.000000,16400.000000,-11.000000,2.000000,-44.000000
6.783828,281.000000,-407.000000,16398.000000,12.000000,-4.000000,-40.000000
6.784269,282.000000,-402.000000,16398.000000,-4.000000,-12.000000,-50.000000
6.790973,303.000000,-408.000000,16400.000000,-8.000000,-9.000000,-45.000000
6.791911,292.000000,-417.000000,16398.000000,0.000000,-6.000000,-27.000000
6.806265,283.000000,-417.000000,16391.000000,19.000000,-13.000000,-27.000000
6.822433,289.000000,-414.000000,16383.000000,6.000000,-22.000000,-15.000000
6.893131,285.000000,-409.000000,16376.000000,6.000000,-3.000000,-10.000000
6.894355,281.000000,-411.000000,16380.000000,27.000000,-16.000000,-21.000000
6.894868,282.000000,-399.000000,16402.000000,10.000000,11.000000,-21.000000
6.895361,281.000000,-400.000000,16401.000000,-19.000000,2.000000,-27.000000
6.895761,290.000000,-405.000000,16403.000000,-21.000000,3.000000,-14.000000
6.896204,282.000000,-411.000000,16373.000000,12.000000,-5.000000,-14.000000
6.896645,277.000000,-400.000000,16399.000000,-3.000000,-25.000000,-18.000000
6.901656,286.000000,-407.000000,16371.000000,-9.000000,-9.000000,-33.000000
6.903715,296.000000,-413.000000,16387.000000,6.000000,2.000000,-27.000000
6.917347,301.000000,-413.000000,16392.000000,12.000000,-30.000000,-31.000000
6.932886,289.000000,-416.000000,16385.000000,-21.000000,-16.000000,-20.000000
6.936758,299.000000,-412.000000,16380.000000,-20.000000,-23.000000,-34.000000
7.007179,288.000000,-413.000000,16401.000000,-8.000000,-7.000000,-37.000000
7.008358,285.000000,-412.000000,16386.000000,15.000000,-20.000000,-28.000000
7.008836,280.000000,-408.000000,16378.000000,15.000000,2.000000,-15.000000
7.009240,281.000000,-405.000000,16400.000000,20.000000,-33.000000,-20.000000
7.009729,293.000000,-407.000000,16405.000000,-22.000000,-15.000000,-27.000000
7.010163,293.000000,-429.000000,16404.000000,-24.000000,-19.000000,-13.000000
7.011496,279.000000,-404.000000,16378.000000,6.000000,-7.000000,-5.000000
7.011979,291.000000,-408.000000,16372.000000,-1.000000,-34.000000,-26.000000
7.027310,283.000000,-400.000000,16402.000000,-20.000000,-14.000000,-31.000000
7.029465,279.000000,-398.000000,16403.000000,18.000000,-21.000000,-42.000000
7.042960,290.000000,-414.000000,16377.000000,14.000000,6.000000,-9.000000
7.123414,289.000000,-401.000000,16397.000000,32.000000,-10.000000,-15.000000
7.124540,302.000000,-415.000000,16388.000000,18.000000,-19.000000,-20.000000
7.125182,287.000000,-409.000000,16401.000000,8.000000,-1.000000,-39.000000
7.125864,289.000000,-400.000000,16410.000000,29.000000,-9.000000,-25.000000
7.126531,291.000000,-405.000000,16383.000000,-23.000000,-10.000000,-34.000000
7.127036,299.000000,-399.000000,16408.000000,36.000000,-7.000000,-21.000000
7.127519,286.000000,-413.000000,16390.000000,40.000000,-3.000000,-35.000000
7.127911,279.000000,-413.000000,16409.000000,14.000000,-8.000000,-38.000000
7.136131,292.000000,-401.000000,16390.000000,-15.000000,16.000000,-43.000000
7.152749,279.000000,-405.000000,16408.000000,15.000000,-35.000000,-12.000000
7.154260,285.000000,-414.000000,16394.000000,-5.000000,-18.000000,-13.000000
7.239789,289.000000,-410.000000,16395.000000,16.000000,-20.000000,-2.000000
7.242567,281.000000,-407.000000,16396.000000,-46.000000,7.000000,-13.000000
7.243330,296.000000,-403.000000,16372.000000,-22.000000,-14.000000,-34.000000
7.243889,297.000000,-413.000000,16402.000000,-24.000000,17.000000,-43.000000
7.244416,297.000000,-405.000000,16375.000000,-22.000000,-2.000000,-40.000000
7.244930,282.000000,-418.000000,16407.000000,-14.000000,-19.000000,-29.000000
7.245867,282.000000,-410.000000,16409.000000,-23.000000,-25.000000,-17.000000
7.248790,294.000000,-416.000000,16376.000000,-46.000000,7.000000,-37.000000
7.250741,280.000000,-406.000000,16390.000000,12.000000,-33.000000,-6.000000
7.262335,291.000000,-411.000000,16386.000000,0.000000,7.000000,-24.000000
7.263775,282.000000,-402.000000,16393.000000,2.000000,16.000000,-24.000000
7.278394,287.000000,-407.000000,16393.000000,-35.000000,2.000000,-55.000000
7.351593,297.000000,-402.000000,16395.000000,-21.000000,-17.000000,-35.000000
7.354301,281.000000,-389.000000,16394.000000,-22.000000,-26.000000,-56.000000
7.355344,284.000000,-405.000000,16411.000000,-21.000000,-11.000000,-21.000000
7.356606,277.000000,-408.000000,16397.000000,-36.000000,4.000000,-14.000000
7.358069,283.000000,-411.000000,16398.000000,10.000000,-19.000000,-10.000000
7.358739,290.000000,-409.000000,16395.000000,-24.000000,-1.000000,-33.000000
7.359241,289.000000,-414.000000,16393.000000,-14.000000,-25.000000,-19.000000
7.359772,282.000000,-409.000000,16379.000000,-37.000000,20.000000,-20.000000
7.371555,291.000000,-410.000000,16401.000000,-19.000000,3.000000,-22.000000
7.372603,302.000000,-416.000000,16400.000000,-23.000000,6.000000,-25.000000
7.388443,289.000000,-416.000000,16388.000000,-1.000000,9.000000,-8.000000
7.389757,300.000000,-406.000000,16382.000000,-34.000000,-8.000000,-18.000000
7.458605,290.000000,-410.000000,16406.000000,-29.000000,-21.000000,-19.000000
7.459834,274.000000,-406.000000,16396.000000,-52.000000,6.000000,-35.000000
7.460347,274.000000,-419.000000,16403.000000,6.000000,-18.000000,-8.000000
7.460744,277.000000,-407.000000,16401.000000,-31.000000,12.000000,-59.000000
7.461192,282.000000,-416.000000,16385.000000,-37.000000,-7.000000,-30.000000
7.461590,281.000000,-412.000000,16380.000000,-51.000000,-18.000000,-32.000000
7.463811,298.000000,-414.000000,16401.000000,1.000000,-14.000000,-27.000000
7.479864,293.000000,-412.000000,16389.000000,1.000000,-5.000000,-43.000000
7.480842,289.000000,-415.000000,16402.000000,5.000000,14.000000,-28.000000
7.495566,283.000000,-415.000000,16398.000000,6.000000,10.000000,-29.000000
7.576872,291.000000,-419.000000,16384.000000,-5.000000,9.000000,-27.000000
7.578054,309.000000,-420.000000,16396.000000,-37.000000,0.000000,-27.000000
7.578583,297.000000,-415.000000,16406.000000,-9.000000,-1.000000,-25.000000
7.579007,285.000000,-418.000000,16392.000000,12.000000,1.000000,-13.000000
7.579454,284.000000,-411.000000,16390.000000,4.000000,13.000000,3.000000
7.579862,276.000000,-426.000000,16400.000000,-11.000000,9.000000,-6.000000
7.580389,288.000000,-414.000000,16376.000000,9.000000,-8.000000,-20.000000
7.580812,285.000000,-412.000000,16398.000000,-26.000000,-19.000000,-41.000000
7.589352,275.000000,-417.000000,16393.000000,-25.000000,3.000000,-16.000000
7.591262,288.000000,-408.000000,16394.000000,-32.000000,-17.000000,-14.000000
7.604277,286.000000,-414.000000,16387.000000,13.000000,-25.000000,-8.000000
7.688981,289.000000,-418.000000,16389.000000,-18.000000,-15.000000,-8.000000
7.690315,286.000000,-424.000000,16410.000000,-24.000000,-5.000000,-22.000000
7.690908,302.000000,-424.000000,16408.000000,-4.000000,-23.000000,-38.000000
7.691442,296.000000,-414.000000,16393.000000,12.000000,-6.000000,-30.000000
7.691854,291.000000,-413.000000,16385.000000,-15.000000,-13.000000,-28.000000
7.693267,286.000000,-414.000000,16386.000000,28.000000,-28.000000,4.000000
7.694505,298.000000,-416.000000,16407.000000,21.000000,-1.000000,-6.000000
7.695980,280.000000,-408.000000,16401.000000,-6.000000,-14.000000,-10.000000
7.698089,280.000000,-422.000000,16407.000000,-34.000000,-34.000000,-30.000000
7.699858,283.000000,-413.000000,16402.000000,-55.000000,-21.000000,-31.000000
7.713248,286.000000,-397.000000,16382.000000,-54.000000,-33.000000,-33.000000
7.728837,279.000000,-414.000000,16372.000000,-20.000000,-25.000000,-9.000000
7.800235,286.000000,-412.000000,16394.000000,-15.000000,-21.000000,-1.000000
7.802752,294.000000,-411.000000,16379.000000,-50.000000,1.000000,-22.000000
7.803590,286.000000,-414.000000,16394.000000,-15.000000,-7.000000,-29.000000
7.804215,285.000000,-414.000000,16394.000000,-4.000000,0.000000,-27.000000
7.804833,306.000000,-421.000000,16413.000000,-9.000000,-17.000000,-44.000000
7.806299,302.000000,-423.000000,16396.000000,-12.000000,11.000000,-41.000000
7.808221,298.000000,-420.000000,16403.000000,1.000000,5.000000,-30.000000
7.809712,289.000000,-420.000000,16405.000000,7.000000,-17.000000,-9.000000
7.822824,297.000000,-417.000000,16398.000000,3.000000,22.000000,1.000000
7.824130,291.000000,-433.000000,16398.000000,33.000000,0.000000,-21.000000
7.837047,283.000000,-423.000000,16405.000000,8.000000,-26.000000,-17.000000
7.907060,289.000000,-412.000000,16377.000000,24.000000,-16.000000,-9.000000
7.908211,289.000000,-407.000000,16393.000000,25.000000,19.000000,0.000000
7.908757,286.000000,-415.000000,16376.000000,16.000000,25.000000,-11.000000
7.909168,283.000000,-414.000000,16369.000000,23.000000,17.000000,-12.000000
7.909664,287.000000,-411.000000,16393.000000,7.000000,3.000000,-16.000000
7.910061,291.000000,-413.000000,16389.000000,0.000000,6.000000,-20.000000
7.910562,292.000000,-417.000000,16390.000000,44.000000,18.000000,15.000000
7.914595,290.000000,-410.000000,16394.000000,0.000000,35.000000,-7.000000
7.930816,289.000000,-413.000000,16375.000000,23.000000,2.000000,12.000000
7.933407,293.000000,-420.000000,16394.000000,6.000000,23.000000,-6.000000
7.945564,282.000000,-412.000000,16387.000000,21.000000,-10.000000,3.000000
8.027091,281.000000,-415.000000,16395.000000,19.000000,-1.000000,-16.000000
8.028261,288.000000,-417.000000,16401.000000,78.000000,7.000000,-8.000000
8.028814,278.000000,-417.000000,16405.000000,53.000000,37.000000,-22.000000
8.029220,285.000000,-414.000000,16380.000000,41.000000,12.000000,-24.000000
8.029694,277.000000,-406.000000,16401.000000,38.000000,9.000000,-35.000000
8.030273,294.000000,-412.000000,16407.000000,48.000000,-3.000000,-27.000000
8.031149,296.000000,-411.000000,16390.000000,33.000000,41.000000,-22.000000
8.032030,295.000000,-411.000000,16380.000000,29.000000,26.000000,-20.000000
8.039669,293.000000,-409.000000,16377.000000,-6.000000,17.000000,-29.000000
8.041426,290.000000,-418.000000,16396.000000,10.000000,15.000000,-16.000000
8.054596,290.000000,-414.000000,16386.000000,26.000000,15.000000,-7.000000
8.140504,268.000000,-413.000000,16403.000000,24.000000,-1.000000,-32.000000
8.141883,278.000000,-418.000000,16398.000000,-6.000000,9.000000,-27.000000
8.142394,287.000000,-420.000000,16402.000000,6.000000,0.000000,-16.000000
8.142836,270.000000,-423.000000,16402.000000,3.000000,8.000000,-43.000000
8.143269,293.000000,-415.000000,16411.000000,10.000000,11.000000,-22.000000
8.143654,281.000000,-415.000000,16391.000000,-11.000000,23.000000,-47.000000
8.144142,282.000000,-419.000000,16398.000000,24.000000,-6.000000,-20.000000
8.144527,282.000000,-416.000000,16393.000000,-17.000000,-15.000000,-35.000000
8.147910,292.000000,-405.000000,16376.000000,4.000000,-17.000000,-21.000000
8.148699,295.000000,-402.000000,16391.000000,7.000000,-5.000000,-24.000000
8.163796,299.000000,-414.000000,16396.000000,21.000000,-7.000000,-20.000000
8.179570,279.000000,-418.000000,16385.000000,-5.000000,12.000000,-19.000000
8.180540,283.000000,-415.000000,16398.000000,-4.000000,-5.000000,-33.000000
8.271209,286.000000,-408.000000,16388.000000,-25.000000,8.000000,-27.000000
8.274702,285.000000,-423.000000,16399.000000,6.000000,0.000000,-14.000000
8.276326,277.000000,-411.000000,16403.000000,3.000000,2.000000,-22.000000
8.277397,274.000000,-412.000000,16402.000000,38.000000,19.000000,-13.000000
8.277971,278.000000,-424.000000,16407.000000,4.000000,-13.000000,-29.000000
8.278420,289.000000,-414.000000,16371.000000,-5.000000,-14.000000,-36.000000
8.278982,279.000000,-408.000000,16395.000000,-20.000000,15.000000,-42.000000
8.281508,278.000000,-409.000000,16401.000000,10.000000,9.000000,-24.000000
8.283784,281.000000,-405.000000,16399.000000,-9.000000,-19.000000,-32.000000
8.289689,290.000000,-407.000000,16386.000000,7.000000,5.000000,-18.000000
8.291626,292.000000,-411.000000,16379.000000,17.000000,-21.000000,-4.000000
8.305909,289.000000,-408.000000,16384.000000,48.000000,-10.000000,-10.000000
8.392140,284.000000,-401.000000,16399.000000,39.000000,-11.000000,-16.000000
8.393464,291.000000,-415.000000,16404.000000,26.000000,-7.000000,-18.000000
8.394063,287.000000,-414.000000,16400.000000,11.000000,4.000000,-27.000000
8.394555,283.000000,-418.000000,16394.000000,12.000000,-22.000000,-10.000000
8.395051,289.000000,-411.000000,16358.000000,29.000000,-14.000000,-29.000000
8.395530,293.000000,-413.000000,16387.000000,36.000000,-18.000000,-9.000000
8.396169,280.000000,-417.000000,16399.000000,17.000000,5.000000,-24.000000
8.396624,292.000000,-415.000000,16385.000000,-1.000000,-3.000000,-35.000000
8.398803,297.000000,-404.000000,16394.000000,-22.000000,-15.000000,-51.000000
8.399973,292.000000,-419.000000,16395.000000,-40.000000,27.000000,-36.000000
8.414738,288.000000,-407.000000,16403.000000,14.000000,3.000000,-18.000000
8.429853,284.000000,-405.000000,16393.000000,27.000000,6.000000,-28.000000
8.430790,292.000000,-402.000000,16390.000000,56.000000,-3.000000,-4.000000
8.511323,287.000000,-413.000000,16395.000000,23.000000,24.000000,-9.000000
8.512441,296.000000,-413.000000,16375.000000,-1.000000,16.000000,-14.000000
8.513001,303.000000,-415.000000,16362.000000,26.000000,-7.000000,-10.000000
8.513405,278.000000,-408.000000,16388.000000,2.000000,-13.000000,-15.000000
8.514051,281.000000,-419.000000,16392.000000,-3.000000,-5.000000,0.000000
8.515239,288.000000,-408.000000,16389.000000,10.000000,2.000000,-11.000000
8.516270,275.000000,-407.000000,16400.000000,-4.000000,14.000000,-6.000000
8.522332,279.000000,-422.000000,16391.000000,17.000000,-38.000000,-12.000000
8.524179,282.000000,-413.000000,16408.000000,-26.000000,-1.000000,-12.000000
8.537482,286.000000,-420.000000,16393.000000,16.000000,5.000000,-14.000000
8.539699,279.000000,-411.000000,16401.000000,6.000000,-6.000000,-18.000000
8.623900,283.000000,-406.000000,16398.000000,-3.000000,11.000000,-31.000000
8.625883,288.000000,-409.000000,16401.000000,1.000000,-10.000000,-19.000000
8.626417,301.000000,-416.000000,16395.000000,-34.000000,7.000000,-14.000000
8.626997,292.000000,-413.000000,16411.000000,-6.000000,-31.000000,-18.000000
8.627484,292.000000,-424.000000,16385.000000,-27.000000,15.000000,-36.000000
8.628657,291.000000,-418.000000,16405.000000,-9.000000,5.000000,-33.000000
8.629429,280.000000,-417.000000,16401.000000,14.000000,-7.000000,-38.000000
8.631691,285.000000,-412.000000,16378.000000,43.000000,-5.000000,-8.000000
8.632796,288.000000,-416.000000,16386.000000,4.000000,-7.000000,-12.000000
8.647616,281.000000,-409.000000,16388.000000,18.000000,-3.000000,-40.000000
8.649051,285.000000,-416.000000,16369.000000,-16.000000,-22.000000,-51.000000
8.728261,284.000000,-414.000000,16390.000000,8.000000,-12.000000,-29.000000
8.729486,297.000000,-423.000000,16400.000000,1.000000,10.000000,-37.000000
8.730080,279.000000,-413.000000,16406.000000,1.000000,-1.000000,-25.000000
8.730530,281.000000,-412.000000,16394.000000,1.000000,13.000000,-17.000000
8.730972,286.000000,-416.000000,16395.000000,16.000000,-32.000000,-28.000000
8.731409,286.000000,-407.000000,16379.000000,3.000000,-24.000000,-29.000000
8.731855,287.000000,-414.000000,16385.000000,18.000000,-7.000000,-19.000000
8.741149,287.000000,-408.000000,16401.000000,15.000000,0.000000,-26.000000
8.743200,282.000000,-410.000000,16397.000000,40.000000,-12.000000,-6.000000
8.756765,280.000000,-417.000000,16401.000000,3.000000,8.000000,-29.000000
8.842253,280.000000,-410.000000,16391.000000,-6.000000,-19.000000,-33.000000
8.843462,277.000000,-417.000000,16382.000000,-14.000000,28.000000,-22.000000
8.844018,279.000000,-417.000000,16409.000000,6.000000,-27.000000,-15.000000
8.844444,287.000000,-419.000000,16406.000000,-14.000000,-14.000000,-16.000000
8.844957,267.000000,-413.000000,16382.000000,15.000000,-34.000000,-18.000000
8.845537,277.000000,-414.000000,16385.000000,-9.000000,-31.000000,-34.000000
8.846129,287.000000,-410.000000,16403.000000,12.000000,-11.000000,-1.000000
8.846811,285.000000,-411.000000,16397.000000,21.000000,11.000000,-20.000000
8.849902,287.000000,-404.000000,16400.000000,28.000000,11.000000,-41.000000
8.852069,305.000000,-416.000000,16391.000000,12.000000,13.000000,-25.000000
8.865756,293.000000,-397.000000,16397.000000,6.000000,15.000000,-11.000000
8.880828,282.000000,-401.000000,16392.000000,-4.000000,-16.000000,-21.000000
8.881730,271.000000,-416.000000,16395.000000,-9.000000,-1.000000,-29.000000
8.959684,276.000000,-407.000000,16407.000000,-33.000000,-5.000000,-32.000000
8.960994,281.000000,-421.000000,16409.000000,-9.000000,-20.000000,-10.000000
8.961520,274.000000,-424.000000,16405.000000,-9.000000,-22.000000,-23.000000
8.961961,275.000000,-416.000000,16390.000000,23.000000,-6.000000,-4.000000
8.962358,282.000000,-412.000000,16409.000000,3.000000,16.000000,-7.000000
8.962842,284.000000,-409.000000,16393.000000,22.000000,7.000000,-15.000000
8.963343,286.000000,-398.000000,16393.000000,-13.000000,9.000000,-15.000000
8.963945,290.000000,-412.000000,16400.000000,-1.000000,6.000000,-3.000000
8.974515,297.000000,-419.000000,16397.000000,-9.000000,-8.000000,-26.000000
8.990326,282.000000,-410.000000,16392.000000,-1.000000,-5.000000,-19.000000
8.991339,287.000000,-409.000000,16400.000000,3.000000,-9.000000,-30.000000
9.076970,287.000000,-408.000000,16375.000000,0.000000,-17.000000,-21.000000
9.078078,274.000000,-402.000000,16383.000000,-2.000000,-6.000000,-34.000000
9.078550,290.000000,-411.000000,16395.000000,0.000000,-15.000000,-13.000000
9.079001,302.000000,-406.000000,16394.000000,-20.000000,-16.000000,-21.000000
9.079367,288.000000,-423.000000,16393.000000,-17.000000,-1.000000,-27.000000
9.079764,284.000000,-412.000000,16390.000000,-21.000000,0.000000,-33.000000
9.080266,287.000000,-418.000000,16377.000000,28.000000,-5.000000,-10.000000
9.080731,289.000000,-416.000000,16404.000000,7.000000,11.000000,-31.000000
9.085214,292.000000,-403.000000,16391.000000,19.000000,12.000000,-47.000000
9.100791,295.000000,-415.000000,16388.000000,-16.000000,6.000000,-40.000000
9.101798,281.000000,-412.000000,16408.000000,4.000000,9.000000,-10.000000
9.116801,280.000000,-402.000000,16399.000000,-5.000000,9.000000,-16.000000
9.193600,286.000000,-409.000000,16385.000000,7.000000,5.000000,-26.000000
9.194816,300.000000,-413.000000,16386.000000,21.000000,-25.000000,-43.000000
9.195346,282.000000,-425.000000,16396.000000,18.000000,-10.000000,-20.000000
9.195752,285.000000,-407.000000,16392.000000,-8.000000,-8.000000,-36.000000
9.196241,282.000000,-409.000000,16391.000000,-11.000000,8.000000,-37.000000
9.196629,283.000000,-409.000000,16400.000000,-21.000000,-9.000000,-32.000000
9.197121,295.000000,-411.000000,16405.000000,-29.000000,-14.000000,-20.000000
9.197578,291.000000,-415.000000,16400.000000,-37.000000,1.000000,-31.000000
9.210805,290.000000,-411.000000,16397.000000,-43.000000,5.000000,-35.000000
9.212422,294.000000,-415.000000,16380.000000,-10.000000,-9.000000,-20.000000
9.228083,297.000000,-408.000000,16378.000000,17.000000,23.000000,-2.000000
9.231621,291.000000,-423.000000,16409.000000,19.000000,-8.000000,-19.000000
9.373308,288.000000,-418.000000,16388.000000,-12.000000,19.000000,-44.000000
9.374629,287.000000,-422.000000,16394.000000,31.000000,8.000000,-34.000000
9.375359,284.000000,-415.000000,16408.000000,-11.000000,9.000000,-31.000000
9.375963,286.000000,-406.000000,16400.000000,-20.000000,1.000000,-32.000000
9.376624,280.000000,-408.000000,16397.000000,-24.000000,-11.000000,-37.000000
9.377248,277.000000,-412.000000,16384.000000,-13.000000,0.000000,-50.000000
9.377722,266.000000,-417.000000,16392.000000,-35.000000,-10.000000,-15.000000
9.378219,282.000000,-414.000000,16406.000000,-6.000000,15.000000,-22.000000
9.378810,279.000000,-414.000000,16403.000000,-7.000000,2.000000,-36.000000
9.379442,288.000000,-423.000000,16402.000000,-25.000000,-15.000000,-22.000000
9.379901,298.000000,-407.000000,16388.000000,-24.000000,-9.000000,-25.000000
9.380702,294.000000,-403.000000,16393.000000,-29.000000,6.000000,-27.000000
9.381353,292.000000,-426.000000,16404.000000,-21.000000,-6.000000,-37.000000
9.381905,287.000000,-422.000000,16401.000000,-41.000000,-7.000000,-28.000000
9.382469,275.000000,-418.000000,16386.000000,-6.000000,-16.000000,-27.000000
9.397120,277.000000,-411.000000,16391.000000,-28.000000,-10.000000,-24.000000
9.503218,280.000000,-401.000000,16398.000000,-15.000000,-13.000000,-35.000000
9.504412,279.000000,-416.000000,16386.000000,-43.000000,-19.000000,-27.000000
9.505684,282.000000,-419.000000,16407.000000,-16.000000,-30.000000,-12.000000
9.506755,288.000000,-419.000000,16400.000000,-11.000000,-18.000000,-22.000000
9.507354,288.000000,-418.000000,16401.000000,17.000000,8.000000,-8.000000
9.507818,305.000000,-419.000000,16375.000000,8.000000,-1.000000,-15.000000
9.508351,293.000000,-415.000000,16397.000000,18.000000,-26.000000,-17.000000
9.508840,291.000000,-419.000000,16394.000000,-14.000000,33.000000,-16.000000
9.509412,282.000000,-414.000000,16374.000000,20.000000,-12.000000,-13.000000
9.509846,282.000000,-417.000000,16390.000000,-12.000000,6.000000,-19.000000
9.510423,276.000000,-419.000000,16395.000000,11.000000,-8.000000,5.000000
9.521440,277.000000,-412.000000,16402.000000,16.000000,6.000000,-7.000000
9.522454,287.000000,-404.000000,16402.000000,8.000000,-18.000000,-3.000000
9.537369,282.000000,-414.000000,16380.000000,-27.000000,-15.000000,-10.000000
9.633420,277.000000,-419.000000,16389.000000,20.000000,-19.000000,-18.000000
9.634648,282.000000,-411.000000,16404.000000,-24.000000,-12.000000,-39.000000
9.635256,289.000000,-422.000000,16406.000000,-21.000000,-20.000000,-10.000000
9.635694,288.000000,-415.000000,16371.000000,-2.000000,-19.000000,-10.000000
9.636234,295.000000,-411.000000,16372.000000,35.000000,-14.000000,-4.000000
9.636656,303.000000,-421.000000,16408.000000,-5.000000,17.000000,-23.000000
9.637186,295.000000,-421.000000,16400.000000,12.000000,-24.000000,-15.000000
9.637607,308.000000,-413.000000,16400.000000,-1.000000,-4.000000,-26.000000
9.638096,301.000000,-416.000000,16400.000000,16.000000,1.000000,-16.000000
9.638512,288.000000,-414.000000,16393.000000,-15.000000,-8.000000,-31.000000
9.645594,285.000000,-412.000000,16399.000000,30.000000,1.000000,-1.000000
9.661012,276.000000,-417.000000,16393.000000,30.000000,-18.000000,-11.000000
9.662235,289.000000,-415.000000,16414.000000,55.000000,-14.000000,-21.000000
9.763777,278.000000,-411.000000,16391.000000,16.000000,14.000000,-31.000000
9.765464,287.000000,-405.000000,16388.000000,24.000000,-28.000000,-23.000000
9.766127,285.000000,-411.000000,16388.000000,-24.000000,-14.000000,-27.000000
9.766629,286.000000,-411.000000,16400.000000,5.000000,-16.000000,-10.000000
9.767186,290.000000,-410.000000,16399.000000,-15.000000,-8.000000,-22.000000
9.767620,286.000000,-417.000000,16390.000000,14.000000,3.000000,-17.000000
9.768147,288.000000,-423.000000,16395.000000,6.000000,-7.000000,-33.000000
9.768602,285.000000,-419.000000,16393.000000,9.000000,0.000000,-22.000000
9.769128,294.000000,-422.000000,16404.000000,-16.000000,-5.000000,-29.000000
9.770030,292.000000,-420.000000,16399.000000,9.000000,-5.000000,-13.000000
9.770637,278.000000,-409.000000,16403.000000,10.000000,-14.000000,-29.000000
9.785823,293.000000,-412.000000,16395.000000,11.000000,1.000000,-32.000000
9.802097,279.000000,-405.000000,16404.000000,0.000000,-3.000000,-42.000000
9.805314,280.000000,-416.000000,16396.000000,-15.000000,-3.000000,-29.000000
9.919007,282.000000,-416.000000,16400.000000,-7.000000,11.000000,-14.000000
9.921342,288.000000,-414.000000,16375.000000,5.000000,-1.000000,-19.000000
9.922261,286.000000,-414.000000,16389.000000,-20.000000,-9.000000,-35.000000
9.922927,277.000000,-415.000000,16408.000000,-6.000000,-25.000000,-30.000000
9.923392,288.000000,-409.000000,16387.000000,-24.000000,-13.000000,-30.000000
9.923957,284.000000,-415.000000,16392.000000,0.000000,-20.000000,-24.000000
9.924408,279.000000,-412.000000,16395.000000,7.000000,-11.000000,-1.000000
9.925684,294.000000,-417.000000,16390.000000,31.000000,-9.000000,-1.000000
9.927361,288.000000,-415.000000,16389.000000,8.000000,-13.000000,-3.000000
9.928186,282.000000,-414.000000,16397.000000,20.000000,-5.000000,-1.000000
9.929098,280.000000,-429.000000,16408.000000,-12.000000,-9.000000,-36.000000
9.930849,272.000000,-417.000000,16393.000000,26.000000,-22.000000,-12.000000
9.942278,275.000000,-412.000000,16392.000000,-8.000000,11.000000,-32.000000
9.943517,282.000000,-416.000000,16393.000000,8.000000,1.000000,-10.000000
10.038086,284.000000,-415.000000,16406.000000,-8.000000,-3.000000,-21.000000
10.039262,294.000000,-413.000000,16391.000000,34.000000,15.000000,0.000000
10.039770,292.000000,-427.000000,16416.000000,4.000000,-2.000000,-10.000000
10.040282,288.000000,-419.000000,16401.000000,9.000000,11.000000,-27.000000
10.040709,290.000000,-411.000000,16394.000000,5.000000,19.000000,-36.000000
10.041195,284.000000,-411.000000,16379.000000,8.000000,-2.000000,-14.000000
10.041670,287.000000,-430.000000,16400.000000,1.000000,15.000000,1.000000
10.042186,281.000000,-415.000000,16385.000000,31.000000,-12.000000,-8.000000
10.042625,285.000000,-416.000000,16400.000000,-230.000000,-14.000000,-7.000000
10.050307,285.000000,-416.000000,16399.000000,-16.000000,-20.000000,-25.000000
10.051313,280.000000,-408.000000,16392.000000,-22.000000,11.000000,-46.000000
10.065770,288.000000,-417.000000,16403.000000,-37.000000,-27.000000,-36.000000
10.158824,269.000000,-412.000000,16402.000000,-21.000000,-17.000000,-44.000000
10.160475,271.000000,-400.000000,16411.000000,-17.000000,-24.000000,-28.000000
10.161150,273.000000,-422.000000,16408.000000,-11.000000,1.000000,-19.000000
10.161851,283.000000,-422.000000,16397.000000,-25.000000,-24.000000,-35.000000
10.162390,298.000000,-411.000000,16380.000000,-5.000000,4.000000,-9.000000
10.162887,294.000000,-424.000000,16396.000000,12.000000,9.000000,2.000000
10.163433,289.000000,-427.000000,16397.000000,22.000000,-21.000000,-1.000000
10.163920,284.000000,-426.000000,16407.000000,36.000000,-16.000000,-9.000000
10.164502,299.000000,-408.000000,16388.000000,8.000000,17.000000,-19.000000
10.165208,289.000000,-426.000000,16401.000000,20.000000,-10.000000,-21.000000
10.174458,290.000000,-416.000000,16403.000000,-13.000000,12.000000,-19.000000
10.190005,290.000000,-423.000000,16413.000000,-3.000000,-28.000000,-51.000000
10.191338,280.000000,-417.000000,16383.000000,-3.000000,0.000000,-39.000000
10.269712,285.000000,-417.000000,16397.000000,19.000000,-8.000000,-26.000000
10.270951,289.000000,-410.000000,16392.000000,-6.000000,30.000000,-32.000000
10.271474,285.000000,-411.000000,16383.000000,36.000000,13.000000,-15.000000
10.271975,284.000000,-403.000000,16391.000000,5.000000,-13.000000,-25.000000
10.272362,290.000000,-404.000000,16387.000000,-2.000000,-10.000000,-32.000000
10.272834,294.000000,-409.000000,16392.000000,-40.000000,-8.000000,-31.000000
10.273267,282.000000,-417.000000,16380.000000,-2.000000,-15.000000,-28.000000
10.273711,281.000000,-418.000000,16388.000000,-17.000000,17.000000,-30.000000
10.284566,282.000000,-418.000000,16389.000000,22.000000,-4.000000,-11.000000
10.300327,287.000000,-417.000000,16388.000000,3.000000,-8.000000,-30.000000
10.301938,284.000000,-418.000000,16413.000000,4.000000,8.000000,-33.000000
10.385209,298.000000,-415.000000,16400.000000,-27.000000,-8.000000,-38.000000
10.386416,289.000000,-415.000000,16363.000000,-15.000000,-17.000000,-6.000000
10.386924,292.000000,-421.000000,16402.000000,-5.000000,-1.000000,-15.000000
10.387359,290.000000,-412.000000,16380.000000,42.000000,-28.000000,-16.000000
10.387747,282.000000,-420.000000,16404.000000,-12.000000,-8.000000,-28.000000
10.388230,294.000000,-415.000000,16389.000000,26.000000,-5.000000,-23.000000
10.388662,276.000000,-408.000000,16363.000000,-12.000000,15.000000,-17.000000
10.389100,283.000000,-406.000000,16382.000000,18.000000,5.000000,10.000000
10.394049,285.000000,-414.000000,16388.000000,5.000000,-4.000000,-23.000000
10.410394,272.000000,-413.000000,16389.000000,-5.000000,-4.000000,-43.000000
10.412120,289.000000,-416.000000,16390.000000,-5.000000,-8.000000,-37.000000
10.425662,294.000000,-418.000000,16384.000000,-2.000000,-28.000000,-28.000000
10.503510,288.000000,-427.000000,16414.000000,5.000000,18.000000,-22.000000
10.504768,281.000000,-424.000000,16398.000000,6.000000,2.000000,-27.000000
10.505494,295.000000,-431.000000,16416.000000,-49.000000,20.000000,-39.000000
10.506180,282.000000,-425.000000,16401.000000,-53.000000,12.000000,-21.000000
10.506804,282.000000,-420.000000,16384.000000,-12.000000,-22.000000,-40.000000
10.507259,278.000000,-423.000000,16398.000000,22.000000,-3.000000,-24.000000
10.507685,295.000000,-415.000000,16387.000000,34.000000,-14.000000,-16.000000
10.508189,294.000000,-415.000000,16377.000000,13.000000,-6.000000,-7.000000
10.518949,278.000000,-408.000000,16367.000000,-28.000000,-41.000000,-21.000000
10.520930,294.000000,-418.000000,16407.000000,-6.000000,-7.000000,-23.000000
10.534153,281.000000,-399.000000,16389.000000,10.000000,-2.000000,8.000000
10.618269,297.000000,-406.000000,16395.000000,20.000000,-3.000000,0.000000
10.619588,294.000000,-415.000000,16391.000000,-15.000000,6.000000,-17.000000
10.620129,290.000000,-421.000000,16401.000000,6.000000,6.000000,-6.000000
10.620546,294.000000,-415.000000,16383.000000,-25.000000,25.000000,-25.000000
10.621018,283.000000,-416.000000,16387.000000,-10.000000,19.000000,-23.000000
10.621415,290.000000,-422.000000,16394.000000,-6.000000,-8.000000,-21.000000
10.621874,280.000000,-414.000000,16399.000000,0.000000,0.000000,-29.000000
10.622283,284.000000,-415.000000,16399.000000,1.000000,-13.000000,-30.000000
10.626781,282.000000,-414.000000,16390.000000,21.000000,-13.000000,-16.000000
10.642767,284.000000,-405.000000,16400.000000,-32.000000,-2.000000,-14.000000
10.644835,293.000000,-408.000000,16379.000000,-27.000000,0.000000,-18.000000
10.658186,292.000000,-412.000000,16386.000000,-16.000000,-9.000000,-48.000000
10.659743,286.000000,-416.000000,16391.000000,4.000000,-23.000000,-40.000000
10.737180,296.000000,-410.000000,16361.000000,-22.000000,-5.000000,-33.000000
10.738528,277.000000,-400.000000,16383.000000,-8.000000,-4.000000,-27.000000
10.739087,280.000000,-411.000000,16383.000000,-12.000000,-6.000000,-16.000000
10.739495,294.000000,-423.000000,16393.000000,-20.000000,5.000000,-7.000000
10.739973,279.000000,-423.000000,16400.000000,-35.000000,9.000000,-32.000000
10.740393,291.000000,-412.000000,16382.000000,-23.000000,-8.000000,-34.000000
10.740898,280.000000,-417.000000,16392.000000,-10.000000,-3.000000,-38.000000
10.752194,275.000000,-420.000000,16410.000000,21.000000,9.000000,-14.000000
10.753850,285.000000,-420.000000,16399.000000,3.000000,0.000000,-38.000000
10.767694,282.000000,-416.000000,16393.000000,-2.000000,2.000000,-8.000000
10.851967,284.000000,-424.000000,16393.000000,17.000000,9.000000,-13.000000
10.853216,291.000000,-414.000000,16375.000000,3.000000,-19.000000,-32.000000
10.853741,291.000000,-412.000000,16388.000000,0.000000,12.000000,-16.000000
10.854227,282.000000,-413.000000,16377.000000,-12.000000,-9.000000,-20.000000
10.854620,281.000000,-407.000000,16401.000000,-16.000000,12.000000,-4.000000
10.855242,277.000000,-410.000000,16375.000000,-17.000000,-16.000000,-19.000000
10.855835,273.000000,-404.000000,16395.000000,-3.000000,-7.000000,-18.000000
10.856470,276.000000,-412.000000,16404.000000,-21.000000,-27.000000,-25.000000
10.859319,288.000000,-412.000000,16377.000000,-19.000000,-16.000000,-17.000000
10.860728,291.000000,-433.000000,16397.000000,32.000000,-26.000000,-17.000000
10.875147,285.000000,-414.000000,16386.000000,31.000000,15.000000,-26.000000
10.890662,277.000000,-421.000000,16389.000000,-13.000000,-8.000000,-38.000000
10.891690,287.000000,-437.000000,16399.000000,-12.000000,8.000000,-19.000000
10.967844,287.000000,-412.000000,16376.000000,22.000000,-7.000000,-15.000000
10.969210,287.000000,-425.000000,16414.000000,18.000000,2.000000,9.000000
10.969827,274.000000,-419.000000,16400.000000,21.000000,-19.000000,0.000000
10.970849,284.000000,-422.000000,16395.000000,-1.000000,-14.000000,-13.000000
10.971348,285.000000,-423.000000,16397.000000,9.000000,-23.000000,-15.000000
10.971898,292.000000,-414.000000,16380.000000,12.000000,-3.000000,-21.000000
10.972691,299.000000,-422.000000,16393.000000,9.000000,-12.000000,-28.000000
10.973195,298.000000,-420.000000,16391.000000,-19.000000,-4.000000,-17.000000
10.986218,296.000000,-412.000000,16392.000000,18.000000,-13.000000,0.000000
11.001277,296.000000,-418.000000,16392.000000,7.000000,21.000000,-11.000000
11.003822,293.000000,-411.000000,16371.000000,5.000000,-12.000000,-19.000000
11.097907,294.000000,-414.000000,16397.000000,0.000000,-1.000000,-21.000000
11.100517,276.000000,-418.000000,16393.000000,14.000000,-14.000000,-27.000000
11.102021,275.000000,-418.000000,16391.000000,-28.000000,-3.000000,-35.000000
11.102891,265.000000,-414.000000,16374.000000,-13.000000,-12.000000,-2.000000
11.104100,292.000000,-421.000000,16399.000000,-23.000000,-9.000000,-14.000000
11.104770,272.000000,-421.000000,16397.000000,-25.000000,-5.000000,15.000000
11.107108,267.000000,-418.000000,16399.000000,-28.000000,-13.000000,-10.000000
11.107980,286.000000,-413.000000,16393.000000,8.000000,-5.000000,-17.000000
11.108779,295.000000,-425.000000,16388.000000,-41.000000,8.000000,-35.000000
11.111770,291.000000,-424.000000,16408.000000,-18.000000,-4.000000,-21.000000
11.113475,305.000000,-415.000000,16395.000000,-25.000000,17.000000,-42.000000
11.127239,292.000000,-414.000000,16378.000000,-9.000000,-20.000000,-44.000000
11.209303,287.000000,-406.000000,16387.000000,-15.000000,-13.000000,-36.000000
11.210525,286.000000,-416.000000,16397.000000,-1.000000,2.000000,-26.000000
11.212123,280.000000,-420.000000,16395.000000,-37.000000,16.000000,-39.000000
11.213575,285.000000,-413.000000,16384.000000,1.000000,-5.000000,-23.000000
11.215225,279.000000,-416.000000,16390.000000,-13.000000,4.000000,-23.000000
11.216930,279.000000,-412.000000,16397.000000,12.000000,-1.000000,-8.000000
11.218483,281.000000,-414.000000,16380.000000,-14.000000,-11.000000,-24.000000
11.219914,293.000000,-411.000000,16363.000000,8.000000,17.000000,-11.000000
11.222079,292.000000,-415.000000,16404.000000,-32.000000,10.000000,-21.000000
11.224187,296.000000,-412.000000,16390.000000,24.000000,-23.000000,-6.000000
11.235288,284.000000,-419.000000,16395.000000,-9.000000,-10.000000,-9.000000
11.251753,278.000000,-421.000000,16404.000000,11.000000,-3.000000,-28.000000
11.318868,290.000000,-420.000000,16394.000000,9.000000,-2.000000,-35.000000
11.320239,282.000000,-414.000000,16407.000000,20.000000,-22.000000,-16.000000
11.320789,289.000000,-422.000000,16401.000000,-5.000000,15.000000,-21.000000
11.321198,284.000000,-416.000000,16389.000000,16.000000,15.000000,-15.000000
11.321676,280.000000,-413.000000,16378.000000,8.000000,-9.000000,-13.000000
11.322073,283.000000,-420.000000,16392.000000,17.000000,-11.000000,-7.000000
11.322546,286.000000,-408.000000,16388.000000,10.000000,-4.000000,-38.000000
11.328162,286.000000,-413.000000,16376.000000,6.000000,-1.000000,2.000000
11.329300,296.000000,-413.000000,16387.000000,19.000000,-4.000000,-17.000000
11.343874,288.000000,-415.000000,16386.000000,26.000000,-16.000000,-9.000000
11.359667,291.000000,-425.000000,16398.000000,-16.000000,-12.000000,-38.000000
11.360717,290.000000,-422.000000,16391.000000,-6.000000,-18.000000,-27.000000
11.447880,286.000000,-412.000000,16392.000000,0.000000,-15.000000,-25.000000
11.449461,288.000000,-411.000000,16389.000000,17.000000,-22.000000,-14.000000
11.450223,282.000000,-417.000000,16390.000000,12.000000,-39.000000,-22.000000
11.450803,275.000000,-418.000000,16381.000000,12.000000,-19.000000,-14.000000
11.451332,287.000000,-415.000000,16381.000000,-6.000000,14.000000,-19.000000
11.451857,293.000000,-414.000000,16378.000000,-15.000000,5.000000,-23.000000
11.452629,282.000000,-411.000000,16377.000000,-6.000000,-6.000000,-43.000000
11.453551,288.000000,-417.000000,16395.000000,0.000000,-24.000000,-16.000000
11.454286,274.000000,-412.000000,16380.000000,-3.000000,-24.000000,-33.000000
11.469063,288.000000,-414.000000,16381.000000,-9.000000,-7.000000,-19.000000
11.470790,291.000000,-415.000000,16405.000000,18.000000,-14.000000,-13.000000
11.484229,290.000000,-414.000000,16388.000000,14.000000,-1.000000,-32.000000
11.571629,274.000000,-415.000000,16377.000000,-16.000000,-14.000000,-28.000000
11.572777,290.000000,-418.000000,16372.000000,17.000000,3.000000,-25.000000
11.573335,293.000000,-413.000000,16389.000000,21.000000,-22.000000,-29.000000
11.573745,287.000000,-417.000000,16399.000000,36.000000,-15.000000,-10.000000
11.574208,295.000000,-415.000000,16373.000000,3.000000,-12.000000,-4.000000
11.574698,292.000000,-412.000000,16381.000000,19.000000,-23.000000,-13.000000
11.575431,293.000000,-418.000000,16390.000000,34.000000,5.000000,-11.000000
11.576074,301.000000,-415.000000,16374.000000,15.000000,5.000000,-19.000000
11.579512,295.000000,-416.000000,16388.000000,16.000000,-2.000000,-16.000000
11.581411,289.000000,-413.000000,16378.000000,14.000000,-10.000000,-18.000000
11.595675,274.000000,-416.000000,16378.000000,12.000000,-10.000000,-18.000000
11.610352,280.000000,-417.000000,16384.000000,-1.000000,-16.000000,-38.000000
11.611271,285.000000,-406.000000,16401.000000,18.000000,-5.000000,-13.000000
11.684909,282.000000,-411.000000,16377.000000,28.000000,-22.000000,-17.000000
11.686739,294.000000,-419.000000,16394.000000,-4.000000,-9.000000,-15.000000
11.687263,292.000000,-414.000000,16357.000000,1.000000,-10.000000,-9.000000
11.688077,292.000000,-422.000000,16390.000000,-22.000000,-1.000000,-25.000000
11.688585,288.000000,-421.000000,16412.000000,0.000000,-16.000000,-33.000000
11.689109,309.000000,-421.000000,16405.000000,-12.000000,9.000000,-33.000000
11.689619,293.000000,-416.000000,16373.000000,-4.000000,15.000000,-20.000000
11.690104,287.000000,-421.000000,16391.000000,-4.000000,-7.000000,-16.000000
11.703577,299.000000,-432.000000,16397.000000,-12.000000,3.000000,-21.000000
11.718731,289.000000,-430.000000,16406.000000,-23.000000,10.000000,-28.000000
11.719825,282.000000,-419.000000,16388.000000,4.000000,-26.000000,-22.000000
11.802599,273.000000,-412.000000,16369.000000,20.000000,-3.000000,-3.000000
11.803721,285.000000,-418.000000,16382.000000,40.000000,-5.000000,-4.000000
11.804220,287.000000,-412.000000,16382.000000,40.000000,20.000000,-11.000000
11.804660,293.000000,-413.000000,16392.000000,1.000000,7.000000,-12.000000
11.805067,284.000000,-415.000000,16389.000000,36.000000,18.000000,-6.000000
11.805446,287.000000,-405.000000,16399.000000,43.000000,14.000000,-16.000000
11.805933,294.000000,-410.000000,16374.000000,19.000000,10.000000,-23.000000
11.811563,291.000000,-414.000000,16377.000000,33.000000,-7.000000,-25.000000
11.813214,284.000000,-409.000000,16385.000000,43.000000,11.000000,-20.000000
11.827417,281.000000,-411.000000,16389.000000,68.000000,7.000000,-37.000000
11.842705,278.000000,-408.000000,16387.000000,15.000000,2.000000,-38.000000
11.843643,285.000000,-414.000000,16381.000000,13.000000,9.000000,-17.000000
11.917399,298.000000,-423.000000,16403.000000,-5.000000,30.000000,-14.000000
11.918589,283.000000,-409.000000,16385.000000,12.000000,-1.000000,4.000000
11.919098,279.000000,-414.000000,16371.000000,-14.000000,10.000000,-13.000000
11.919491,299.000000,-414.000000,16366.000000,36.000000,-16.000000,2.000000
11.919930,282.000000,-412.000000,16386.000000,8.000000,10.000000,-19.000000
11.920309,304.000000,-408.000000,16380.000000,23.000000,2.000000,-5.000000
11.921185,294.000000,-406.000000,16404.000000,19.000000,13.000000,-14.000000
11.921711,290.000000,-406.000000,16402.000000,22.000000,-33.000000,-22.000000
11.937314,284.000000,-410.000000,16379.000000,-1.000000,-3.000000,-34.000000
11.939400,286.000000,-408.000000,16395.000000,33.000000,3.000000,-22.000000
11.953427,285.000000,-410.000000,16385.000000,17.000000,9.000000,-10.000000
12.035379,303.000000,-409.000000,16379.000000,18.000000,2.000000,-21.000000
12.036600,282.000000,-406.000000,16397.000000,2.000000,0.000000,-21.000000
12.037120,291.000000,-416.000000,16385.000000,0.000000,-27.000000,1.000000
12.037557,285.000000,-410.000000,16393.000000,-20.000000,17.000000,-21.000000
12.037980,281.000000,-411.000000,16368.000000,36.000000,4.000000,-28.000000
12.038361,286.000000,-413.000000,16378.000000,2.000000,-12.000000,-34.000000
12.038844,277.000000,-419.000000,16383.000000,-17.000000,0.000000,-6.000000
12.039231,279.000000,-412.000000,16374.000000,-2.000000,2.000000,-14.000000
12.046395,281.000000,-414.000000,16375.000000,17.000000,1.000000,-24.000000
12.061589,296.000000,-420.000000,16396.000000,24.000000,1.000000,-23.000000
12.063745,281.000000,-410.000000,16382.000000,34.000000,-12.000000,-15.000000
12.077509,285.000000,-413.000000,16389.000000,-5.000000,23.000000,-26.000000
12.151958,288.000000,-414.000000,16376.000000,10.000000,-3.000000,-25.000000
12.153089,284.000000,-410.000000,16394.000000,3.000000,20.000000,-33.000000
12.153608,289.000000,-428.000000,16397.000000,17.000000,5.000000,-39.000000
12.154130,307.000000,-416.000000,16406.000000,-40.000000,14.000000,-18.000000
12.154528,292.000000,-413.000000,16375.000000,-30.000000,5.000000,-11.000000
12.154996,277.000000,-414.000000,16403.000000,0.000000,2.000000,-27.000000
12.155637,292.000000,-413.000000,16395.000000,41.000000,-7.000000,-30.000000
12.156189,289.000000,-406.000000,16383.000000,27.000000,-30.000000,-15.000000
12.171899,279.000000,-415.000000,16386.000000,28.000000,-11.000000,-11.000000
12.173955,287.000000,-412.000000,16386.000000,21.000000,9.000000,-17.000000
12.187558,276.000000,-421.000000,16403.000000,9.000000,7.000000,-26.000000
12.188939,282.000000,-406.000000,16410.000000,-10.000000,-7.000000,-34.000000
12.267363,279.000000,-412.000000,16385.000000,-13.000000,-14.000000,-8.000000
12.268605,297.000000,-410.000000,16383.000000,-14.000000,-10.000000,-30.000000
12.269132,298.000000,-398.000000,16388.000000,-2.000000,-12.000000,-27.000000
12.269571,292.000000,-417.000000,16365.000000,2.000000,-15.000000,-34.000000
12.269981,287.000000,-402.000000,16410.000000,-6.000000,1.000000,-28.000000
12.270366,279.000000,-412.000000,16387.000000,16.000000,1.000000,-20.000000
12.270861,285.000000,-418.000000,16393.000000,1.000000,3.000000,-5.000000
12.282438,286.000000,-404.000000,16397.000000,258.000000,-5.000000,-11.000000
12.284549,287.000000,-411.000000,16401.000000,6.000000,14.000000,-29.000000
12.298106,300.000000,-415.000000,16384.000000,-2.000000,-2.000000,-28.000000
12.300006,288.000000,-415.000000,16390.000000,3.000000,-22.000000,-21.000000
12.386568,295.000000,-412.000000,16386.000000,9.000000,-8.000000,-13.000000
12.389252,285.000000,-422.000000,16402.000000,-9.000000,-13.000000,-26.000000
12.391032,281.000000,-408.000000,16400.000000,-9.000000,0.000000,-15.000000
12.393387,285.000000,-411.000000,16382.000000,-15.000000,-31.000000,-33.000000
12.395847,280.000000,-423.000000,16396.000000,-24.000000,-7.000000,-17.000000
12.397476,285.000000,-409.000000,16370.000000,-27.000000,-29.000000,-14.000000
12.398662,281.000000,-414.000000,16372.000000,25.000000,-23.000000,-20.000000
12.399286,289.000000,-411.000000,16377.000000,12.000000,-22.000000,-20.000000
12.399842,280.000000,-415.000000,16403.000000,-6.000000,-1.000000,-9.000000
12.407694,291.000000,-415.000000,16396.000000,5.000000,1.000000,-29.000000
12.422958,294.000000,-417.000000,16399.000000,-17.000000,4.000000,-39.000000
12.489086,291.000000,-407.000000,16396.000000,25.000000,-10.000000,-19.000000
12.490282,294.000000,-423.000000,16410.000000,31.000000,-20.000000,-14.000000
12.490827,326.000000,-423.000000,16345.000000,48.000000,-14.000000,-15.000000
12.491306,288.000000,-412.000000,16376.000000,84.000000,24.000000,-18.000000
12.491796,290.000000,-408.000000,16385.000000,84.000000,18.000000,-21.000000
12.492187,292.000000,-411.000000,16402.000000,35.000000,-18.000000,-15.000000
12.492675,287.000000,-417.000000,16375.000000,51.000000,-15.000000,-34.000000
12.500254,282.000000,-414.000000,16392.000000,29.000000,17.000000,-2.000000
12.502683,289.000000,-418.000000,16387.000000,28.000000,-7.000000,-19.000000
12.516770,287.000000,-413.000000,16377.000000,-2.000000,-1.000000,-28.000000
12.530978,288.000000,-411.000000,16401.000000,11.000000,3.000000,-13.000000
12.602396,284.000000,-416.000000,16397.000000,5.000000,9.000000,-20.000000
12.603577,286.000000,-411.000000,16400.000000,28.000000,-24.000000,1.000000
12.604141,286.000000,-394.000000,16402.000000,13.000000,7.000000,2.000000
12.604562,302.000000,-411.000000,16397.000000,41.000000,-8.000000,-9.000000
12.605031,299.000000,-411.000000,16374.000000,1.000000,6.000000,-22.000000
12.605414,296.000000,-418.000000,16397.000000,5.000000,9.000000,-29.000000
12.605880,290.000000,-411.000000,16389.000000,14.000000,31.000000,-10.000000
12.607966,291.000000,-413.000000,16370.000000,11.000000,14.000000,-23.000000
12.608533,304.000000,-412.000000,16384.000000,-28.000000,10.000000,-8.000000
12.624534,284.000000,-408.000000,16401.000000,39.000000,-8.000000,8.000000
12.640066,291.000000,-412.000000,16387.000000,24.000000,9.000000,7.000000
12.641083,268.000000,-413.000000,16388.000000,43.000000,-16.000000,-10.000000
12.718704,290.000000,-416.000000,16398.000000,2.000000,25.000000,-3.000000
12.720054,297.000000,-409.000000,16399.000000,41.000000,-10.000000,3.000000
12.720605,288.000000,-411.000000,16380.000000,41.000000,-34.000000,0.000000
12.721061,298.000000,-409.000000,16387.000000,47.000000,-27.000000,-11.000000
12.721492,286.000000,-411.000000,16384.000000,-1.000000,-3.000000,-26.000000
12.721962,285.000000,-424.000000,16405.000000,35.000000,-27.000000,-15.000000
12.722383,291.000000,-416.000000,16380.000000,-16.000000,7.000000,-27.000000
12.733030,285.000000,-410.000000,16401.000000,34.000000,0.000000,-27.000000
12.734245,284.000000,-442.000000,16398.000000,14.000000,-2.000000,-16.000000
12.749171,285.000000,-407.000000,16399.000000,45.000000,-30.000000,-46.000000
12.750886,273.000000,-416.000000,16388.000000,9.000000,-4.000000,-29.000000
12.912161,288.000000,-418.000000,16389.000000,39.000000,6.000000,-16.000000
12.915463,285.000000,-407.000000,16402.000000,30.000000,21.000000,-39.000000
12.917129,292.000000,-411.000000,16389.000000,52.000000,-11.000000,-39.000000
12.918802,277.000000,-406.000000,16391.000000,29.000000,14.000000,-57.000000
12.920733,296.000000,-401.000000,16390.000000,39.000000,-13.000000,-30.000000
12.921529,293.000000,-399.000000,16402.000000,6.000000,-20.000000,-35.000000
12.922197,278.000000,-398.000000,16399.000000,19.000000,-15.000000,-42.000000
12.922769,289.000000,-404.000000,16400.000000,5.000000,11.000000,-66.000000
12.923355,294.000000,-412.000000,16374.000000,10.000000,6.000000,-40.000000
12.923949,292.000000,-413.000000,16388.000000,41.000000,30.000000,-43.000000
12.924665,286.000000,-408.000000,16404.000000,89.000000,-3.000000,-45.000000
12.925679,284.000000,-399.000000,16397.000000,94.000000,31.000000,-42.000000
12.926663,286.000000,-401.000000,16407.000000,101.000000,10.000000,-38.000000
12.927272,288.000000,-399.000000,16404.000000,87.000000,11.000000,-60.000000
12.927786,291.000000,-412.000000,16388.000000,77.000000,33.000000,-23.000000
12.928421,288.000000,-410.000000,16372.000000,27.000000,43.000000,-42.000000
12.929062,286.000000,-410.000000,16369.000000,50.000000,62.000000,-45.000000
12.935588,289.000000,-386.000000,16394.000000,67.000000,86.000000,-49.000000
13.028887,296.000000,-393.000000,16407.000000,132.000000,64.000000,-23.000000
13.030364,285.000000,-403.000000,16378.000000,146.000000,93.000000,-28.000000
13.030935,279.000000,-391.000000,16392.000000,163.000000,83.000000,-13.000000
13.031451,272.000000,-392.000000,16399.000000,133.000000,76.000000,-22.000000
13.031935,279.000000,-377.000000,16403.000000,136.000000,67.000000,-13.000000
13.032431,271.000000,-383.000000,16409.000000,112.000000,76.000000,-25.000000
13.032873,294.000000,-363.000000,16393.000000,86.000000,46.000000,-17.000000
13.033328,275.000000,-355.000000,16404.000000,63.000000,25.000000,10.000000
13.033857,282.000000,-369.000000,16393.000000,-21.000000,38.000000,7.000000
13.034349,286.000000,-383.000000,16385.000000,-51.000000,36.000000,-1.000000
13.045167,287.000000,-377.000000,16402.000000,-74.000000,11.000000,-21.000000
13.061643,274.000000,-371.000000,16401.000000,-70.000000,8.000000,-12.000000
13.062708,281.000000,-389.000000,16379.000000,-41.000000,2.000000,-34.000000
13.145776,284.000000,-404.000000,16388.000000,-70.000000,0.000000,-21.000000
13.147512,275.000000,-393.000000,16394.000000,-50.000000,6.000000,-5.000000
13.148185,265.000000,-403.000000,16396.000000,4.000000,-10.000000,6.000000
13.148773,275.000000,-395.000000,16395.000000,1.000000,-1.000000,1.000000
13.149352,274.000000,-393.000000,16398.000000,45.000000,-4.000000,5.000000
13.151245,271.000000,-382.000000,16386.000000,15.000000,-9.000000,-12.000000
13.153279,282.000000,-378.000000,16390.000000,-7.000000,0.000000,-19.000000
13.155240,279.000000,-381.000000,16396.000000,-3.000000,0.000000,-15.000000
13.157924,283.000000,-376.000000,16387.000000,16.000000,1.000000,-30.000000
13.171388,271.000000,-397.000000,16403.000000,11.000000,-19.000000,-33.000000
13.173664,274.000000,-386.000000,16401.000000,6.000000,-26.000000,-19.000000
13.186582,278.000000,-387.000000,16398.000000,27.000000,-30.000000,-17.000000
13.279462,281.000000,-386.000000,16395.000000,-2.000000,-1.000000,-1.000000
13.283624,278.000000,-382.000000,16418.000000,-33.000000,-17.000000,-18.000000
13.284548,268.000000,-386.000000,16378.000000,-46.000000,9.000000,-21.000000
13.285960,277.000000,-389.000000,16407.000000,-27.000000,0.000000,-19.000000
13.286903,268.000000,-383.000000,16391.000000,-39.000000,29.000000,-22.000000
13.287553,275.000000,-398.000000,16394.000000,-18.000000,15.000000,6.000000
13.288047,280.000000,-399.000000,16399.000000,-17.000000,25.000000,-5.000000
13.288639,282.000000,-395.000000,16373.000000,21.000000,13.000000,-29.000000
13.290544,268.000000,-397.000000,16402.000000,35.000000,21.000000,-34.000000
13.291909,284.000000,-398.000000,16400.000000,-9.000000,26.000000,-39.000000
13.296017,280.000000,-382.000000,16388.000000,-9.000000,21.000000,-28.000000
13.311225,271.000000,-398.000000,16406.000000,20.000000,-11.000000,-29.000000
13.312274,268.000000,-388.000000,16389.000000,5.000000,17.000000,-21.000000
13.408413,283.000000,-391.000000,16398.000000,35.000000,4.000000,-30.000000
13.410684,277.000000,-393.000000,16391.000000,-6.000000,4.000000,-40.000000
13.411418,272.000000,-386.000000,16389.000000,9.000000,-10.000000,-23.000000
13.411959,277.000000,-380.000000,16400.000000,-14.000000,-16.000000,-36.000000
13.412487,279.000000,-370.000000,16394.000000,11.000000,4.000000,-11.000000
13.412906,293.000000,-391.000000,16375.000000,-21.000000,25.000000,-14.000000
13.414445,275.000000,-381.000000,16400.000000,17.000000,6.000000,-16.000000
13.416143,287.000000,-384.000000,16386.000000,-6.000000,33.000000,-35.000000
13.418010,268.000000,-400.000000,16408.000000,24.000000,3.000000,-18.000000
13.420912,268.000000,-376.000000,16389.000000,11.000000,9.000000,-46.000000
13.422169,269.000000,-376.000000,16400.000000,1.000000,29.000000,-14.000000
13.436754,265.000000,-382.000000,16397.000000,-4.000000,-4.000000,-25.000000
13.524014,268.000000,-395.000000,16389.000000,14.000000,-13.000000,-3.000000
13.525687,262.000000,-379.000000,16382.000000,-37.000000,-5.000000,-6.000000
13.526516,269.000000,-396.000000,16379.000000,-49.000000,-7.000000,-4.000000
13.527461,267.000000,-388.000000,16402.000000,-38.000000,0.000000,-8.000000
13.529607,277.000000,-388.000000,16390.000000,-4.000000,7.000000,-5.000000
13.530606,274.000000,-400.000000,16381.000000,-19.000000,-7.000000,-12.000000
13.531705,296.000000,-384.000000,16361.000000,-2.000000,-16.000000,-27.000000
13.532880,285.000000,-392.000000,16402.000000,-29.000000,-29.000000,-38.000000
13.533784,263.000000,-404.000000,16384.000000,-4.000000,4.000000,-15.000000
13.534444,272.000000,-386.000000,16401.000000,3.000000,6.000000,-50.000000
13.546014,276.000000,-399.000000,16408.000000,50.000000,-17.000000,-11.000000
13.562236,277.000000,-390.000000,16397.000000,7.000000,3.000000,-14.000000
13.636784,272.000000,-389.000000,16411.000000,-17.000000,-16.000000,-22.000000
13.640139,275.000000,-382.000000,16397.000000,-35.000000,-9.000000,-21.000000
13.640939,277.000000,-383.000000,16403.000000,32.000000,-11.000000,3.000000
13.641502,288.000000,-393.000000,16397.000000,-6.000000,5.000000,-17.000000
13.642116,286.000000,-397.000000,16368.000000,-27.000000,-12.000000,-29.000000
13.642579,285.000000,-403.000000,16394.000000,-67.000000,32.000000,-21.000000
13.643177,281.000000,-392.000000,16390.000000,-22.000000,8.000000,7.000000
13.644518,283.000000,-382.000000,16403.000000,-26.000000,-14.000000,-7.000000
13.646892,295.000000,-383.000000,16399.000000,-18.000000,-28.000000,-4.000000
13.654772,312.000000,-402.000000,16399.000000,-6.000000,-1.000000,-25.000000
13.670815,330.000000,-373.000000,16355.000000,18.000000,71.000000,-20.000000
13.672244,327.000000,-342.000000,16383.000000,-33.000000,139.000000,-9.000000
13.742422,348.000000,-391.000000,16377.000000,-112.000000,173.000000,16.000000
13.743631,384.000000,-402.000000,16395.000000,-85.000000,223.000000,16.000000
13.744128,377.000000,-403.000000,16419.000000,-32.000000,306.000000,23.000000
13.744527,27325.000000,4412.000000,17205.000000,-40.000000,319.000000,355.000000
13.745337,-416.000000,-1818.000000,16232.000000,145.000000,349.000000,5372.000000
13.745833,5535.000000,-1187.000000,16541.000000,56.000000,32.000000,1872.000000
13.747969,5652.000000,-1717.000000,16471.000000,348.000000,58.000000,-1323.000000
13.749043,5713.000000,-1849.000000,16641.000000,377.000000,-340.000000,-2652.000000
13.763879,6506.000000,-1228.000000,16404.000000,66.000000,-368.000000,-3049.000000
13.779809,4502.000000,-1385.000000,16430.000000,145.000000,-258.000000,-2783.000000
13.780763,6193.000000,-449.000000,16434.000000,7.000000,-347.000000,-1834.000000
13.861428,4840.000000,-43.000000,16354.000000,-127.000000,-405.000000,-400.000000
13.862638,4788.000000,256.000000,16726.000000,250.000000,14.000000,786.000000
13.863170,5115.000000,252.000000,16101.000000,172.000000,-37.000000,1773.000000
13.863609,5473.000000,-674.000000,16449.000000,-152.000000,61.000000,2067.000000
13.864002,3153.000000,-380.000000,16485.000000,-132.000000,336.000000,2734.000000
13.864488,2301.000000,648.000000,16441.000000,59.000000,287.000000,3422.000000
13.864923,1100.000000,-369.000000,16690.000000,-736.000000,199.000000,4509.000000
13.865736,793.000000,-1277.000000,16461.000000,-757.000000,402.000000,6488.000000
13.872876,-2406.000000,-744.000000,16342.000000,-745.000000,3.000000,6134.000000
13.888778,-2798.000000,-865.000000,16277.000000,-399.000000,-326.000000,4633.000000
13.891240,-3346.000000,-736.000000,16099.000000,-263.000000,-225.000000,3603.000000
13.977732,-5128.000000,-279.000000,16001.000000,418.000000,-255.000000,2188.000000
13.978924,-6738.000000,-27.000000,16084.000000,85.000000,100.000000,2018.000000
13.979491,-7638.000000,-42.000000,16230.000000,42.000000,216.000000,2351.000000
13.980018,-7467.000000,106.000000,15971.000000,208.000000,204.000000,2100.000000
13.980454,-9022.000000,-37.000000,16145.000000,551.000000,228.000000,1907.000000
13.980852,-9005.000000,-631.000000,16164.000000,477.000000,330.000000,1495.000000
13.981341,-8802.000000,-154.000000,16192.000000,561.000000,239.000000,450.000000
13.981760,-9148.000000,1136.000000,16225.000000,438.000000,213.000000,-459.000000
13.984266,-2097.000000,675.000000,16350.000000,449.000000,-19.000000,-632.000000
14.000004,-16341.000000,-972.000000,16068.000000,394.000000,-29.000000,-1.000000
14.002151,-10185.000000,-1653.000000,16365.000000,195.000000,-26.000000,1712.000000
14.015742,-10314.000000,-989.000000,16052.000000,-231.000000,-153.000000,3516.000000
14.088893,-10328.000000,-421.000000,16291.000000,-451.000000,-196.000000,2240.000000
14.090137,-7894.000000,0.000000,16019.000000,-777.000000,-351.000000,1077.000000
14.090683,-8034.000000,704.000000,16109.000000,-584.000000,-238.000000,231.000000
14.091083,-8382.000000,1761.000000,16147.000000,-621.000000,-353.000000,-667.000000
14.091529,-7134.000000,1674.000000,16186.000000,-766.000000,-108.000000,-654.000000
14.091936,-4849.000000,1372.000000,16477.000000,-552.000000,414.000000,-787.000000
14.092391,-4440.000000,1014.000000,16073.000000,237.000000,137.000000,-1435.000000
14.094594,-4164.000000,-1177.000000,17267.000000,-583.000000,437.000000,-1942.000000
14.110725,-2377.000000,-265.000000,15858.000000,1288.000000,-427.000000,-2765.000000
14.111652,-1065.000000,-358.000000,16201.000000,325.000000,-58.000000,-2540.000000
14.126423,-173.000000,-1766.000000,16404.000000,-390.000000,-44.000000,-3138.000000
14.206497,2437.000000,-794.000000,16568.000000,-305.000000,-4.000000,-4577.000000
14.207682,1073.000000,-1009.000000,16510.000000,-201.000000,293.000000,-4753.000000
14.208127,3983.000000,-1149.000000,17005.000000,-341.000000,202.000000,-3546.000000
14.208582,5154.000000,-903.000000,16315.000000,434.000000,258.000000,-2951.000000
14.208953,5099.000000,-1043.000000,16528.000000,-401.000000,283.000000,-2059.000000
14.209357,4907.000000,-1239.000000,16560.000000,125.000000,90.000000,-1448.000000
14.209773,7554.000000,-870.000000,16481.000000,390.000000,-49.000000,-844.000000
14.210132,6324.000000,-604.000000,16528.000000,545.000000,-200.000000,-411.000000
14.220379,6932.000000,-742.000000,16348.000000,401.000000,-203.000000,152.000000
14.221349,7418.000000,-328.000000,16387.000000,266.000000,-413.000000,-18.000000
14.236624,7853.000000,-362.000000,16613.000000,134.000000,-126.000000,464.000000
14.325997,5806.000000,76.000000,16492.000000,467.000000,169.000000,1290.000000
14.327568,6610.000000,-328.000000,16749.000000,181.000000,18.000000,2570.000000
14.328154,5897.000000,-380.000000,16557.000000,369.000000,-138.000000,3671.000000
14.328573,4870.000000,-480.000000,16535.000000,167.000000,-47.000000,3786.000000
14.328981,5053.000000,-297.000000,16435.000000,41.000000,-128.000000,3338.000000
14.329467,4747.000000,-395.000000,16440.000000,37.000000,-62.000000,3000.000000
14.329846,3041.000000,-243.000000,16355.000000,114.000000,-9.000000,2192.000000
14.330356,2099.000000,-266.000000,16339.000000,70.000000,25.000000,1435.000000
14.330862,578.000000,-321.000000,16366.000000,38.000000,64.000000,428.000000
14.331424,331.000000,-305.000000,16336.000000,-74.000000,84.000000,32.000000
14.344072,336.000000,-325.000000,16333.000000,-139.000000,68.000000,-10.000000
14.359401,353.000000,-349.000000,16369.000000,-185.000000,137.000000,-36.000000
14.360364,333.000000,-346.000000,16382.000000,-132.000000,178.000000,-57.000000
14.440127,307.000000,-344.000000,16355.000000,-103.000000,164.000000,-67.000000
14.441385,256.000000,-373.000000,16380.000000,-81.000000,148.000000,-30.000000
14.441965,230.000000,-391.000000,16359.000000,-137.000000,118.000000,-34.000000
14.442376,198.000000,-424.000000,16400.000000,-126.000000,70.000000,-7.000000
14.442847,195.000000,-420.000000,16393.000000,-105.000000,17.000000,-1.000000
14.443233,177.000000,-415.000000,16370.000000,-30.000000,12.000000,-1.000000
14.443715,165.000000,-419.000000,16360.000000,-11.000000,-19.000000,3.000000
14.444145,183.000000,-410.000000,16361.000000,-18.000000,-56.000000,8.000000
14.454078,203.000000,-395.000000,16350.000000,-79.000000,-67.000000,-14.000000
14.468986,229.000000,-397.000000,16357.000000,-55.000000,-94.000000,8.000000
14.470216,256.000000,-403.000000,16354.000000,-56.000000,-92.000000,-4.000000
14.559280,294.000000,-370.000000,16385.000000,-26.000000,-68.000000,12.000000
14.560515,330.000000,-351.000000,16368.000000,-17.000000,-65.000000,15.000000
14.561177,351.000000,-348.000000,16341.000000,25.000000,-75.000000,-22.000000
14.561781,359.000000,-354.000000,16369.000000,-4.000000,-50.000000,-4.000000
14.562243,347.000000,-354.000000,16365.000000,-19.000000,-42.000000,-21.000000
14.562695,332.000000,-391.000000,16368.000000,33.000000,-51.000000,-3.000000
14.563155,305.000000,-408.000000,16370.000000,39.000000,-33.000000,-3.000000
14.563732,287.000000,-413.000000,16374.000000,53.000000,-30.000000,-21.000000
14.564280,286.000000,-418.000000,16360.000000,59.000000,-15.000000,-56.000000
14.577839,284.000000,-408.000000,16374.000000,36.000000,18.000000,-27.000000
14.581164,309.000000,-369.000000,16365.000000,9.000000,94.000000,-39.000000
14.594050,348.000000,-354.000000,16323.000000,-81.000000,140.000000,-68.000000
14.685214,390.000000,-397.000000,16360.000000,-153.000000,185.000000,-127.000000
14.688563,19696.000000,-4172.000000,16777.000000,-157.000000,211.000000,-985.000000
14.690603,4195.000000,1098.000000,16357.000000,524.000000,29.000000,-10269.000000
14.692008,7851.000000,1277.000000,16457.000000,805.000000,-39.000000,-10533.000000
14.692770,8757.000000,253.000000,16489.000000,702.000000,-28.000000,-7296.000000
14.693448,8686.000000,-180.000000,16498.000000,418.000000,-32.000000,-5333.000000
14.694039,9796.000000,-240.000000,16526.000000,270.000000,-195.000000,-3863.000000
14.694744,9681.000000,-474.000000,16463.000000,164.000000,-266.000000,-3612.000000
14.695437,8971.000000,-787.000000,16369.000000,141.000000,-40.000000,-3835.000000
14.703482,10500.000000,278.000000,16377.000000,-101.000000,-39.000000,-3478.000000
14.705407,8087.000000,213.000000,16528.000000,-489.000000,-24.000000,-1065.000000
14.719145,5920.000000,-841.000000,17027.000000,-780.000000,-132.000000,1643.000000
14.720220,7750.000000,494.000000,16501.000000,-248.000000,-279.000000,2733.000000
14.810463,6420.000000,288.000000,17003.000000,-124.000000,-258.000000,3546.000000
14.812753,3158.000000,160.000000,16644.000000,-210.000000,-546.000000,4421.000000
14.814032,5045.000000,1808.000000,15958.000000,343.000000,-7.000000,5057.000000
14.816334,-739.000000,195.000000,16421.000000,-396.000000,213.000000,6597.000000
14.817625,694.000000,1028.000000,15598.000000,54.000000,495.000000,8021.000000
14.818304,-2634.000000,-747.000000,16474.000000,-841.000000,473.000000,8716.000000
14.818979,-4610.000000,-707.000000,16322.000000,-414.000000,38.000000,8938.000000
14.819653,-5272.000000,-119.000000,16161.000000,-52.000000,-134.000000,7853.000000
14.821674,-7878.000000,-733.000000,15978.000000,122.000000,-246.000000,7805.000000
14.829949,-7213.000000,-439.000000,16122.000000,-4.000000,341.000000,6974.000000
14.832073,-10080.000000,-68.000000,16082.000000,-15.000000,409.000000,5673.000000
14.845821,-8832.000000,-19.000000,16111.000000,112.000000,272.000000,5175.000000
14.916630,-12423.000000,-613.000000,16171.000000,218.000000,68.000000,5158.000000
14.918163,-11257.000000,-264.000000,16013.000000,380.000000,153.000000,4581.000000
14.918791,-12829.000000,-447.000000,16204.000000,94.000000,146.000000,3702.000000
14.919289,-11794.000000,-667.000000,16122.000000,-14.000000,62.000000,3347.000000
14.919840,-11807.000000,-309.000000,16193.000000,-57.000000,99.000000,2121.000000
14.920904,-1581.000000,-331.000000,16403.000000,-64.000000,-30.000000,748.000000
14.921519,-3600.000000,392.000000,16108.000000,38.000000,-104.000000,35.000000
14.924421,-16269.000000,-76.000000,15974.000000,112.000000,-93.000000,1788.000000
14.940159,-10461.000000,-1580.000000,16110.000000,-393.000000,-182.000000,5530.000000
14.942362,-10417.000000,-1839.000000,16172.000000,-207.000000,-48.000000,3817.000000
14.954582,-10573.000000,-1362.000000,16233.000000,-436.000000,-179.000000,1414.000000
15.041602,-9855.000000,-663.000000,16138.000000,-387.000000,-155.000000,-597.000000
15.043290,-10218.000000,567.000000,16030.000000,-91.000000,-97.000000,-3476.000000
15.044023,-6987.000000,711.000000,16375.000000,222.000000,-214.000000,-5125.000000
15.044581,-7619.000000,1144.000000,16519.000000,435.000000,-219.000000,-5745.000000
15.045220,-5164.000000,436.000000,16107.000000,315.000000,-112.000000,-4843.000000
15.045834,-4161.000000,596.000000,16101.000000,-75.000000,409.000000,-5153.000000
15.046532,-3244.000000,579.000000,15962.000000,319.000000,167.000000,-6041.000000
15.047109,-2186.000000,411.000000,16230.000000,220.000000,97.000000,-6761.000000
15.048551,1541.000000,641.000000,16211.000000,821.000000,-332.000000,-7429.000000
15.050910,-1323.000000,-1186.000000,16592.000000,-611.000000,-83.000000,-7610.000000
15.063958,4113.000000,723.000000,16410.000000,-176.000000,-326.000000,-8346.000000
15.150638,1343.000000,62.000000,16065.000000,-560.000000,121.000000,-8435.000000
15.152560,6233.000000,498.000000,16418.000000,-421.000000,244.000000,-7273.000000
15.153201,5455.000000,-144.000000,16465.000000,-119.000000,226.000000,-6319.000000
15.153836,3631.000000,-689.000000,16535.000000,-360.000000,151.000000,-6173.000000
15.154322,8405.000000,-226.000000,16732.000000,263.000000,7.000000,-5879.000000
15.155285,6584.000000,-193.000000,16505.000000,541.000000,-250.000000,-5440.000000
15.157120,7272.000000,18.000000,16379.000000,376.000000,-371.000000,-4493.000000
15.158784,7823.000000,-377.000000,16452.000000,206.000000,-446.000000,-4357.000000
15.160874,7251.000000,-275.000000,16675.000000,267.000000,-50.000000,-3630.000000
15.162609,8952.000000,546.000000,16476.000000,259.000000,-236.000000,-2351.000000
15.174889,7873.000000,-80.000000,16679.000000,267.000000,-337.000000,-950.000000
15.267958,8098.000000,-223.000000,16376.000000,172.000000,-110.000000,263.000000
15.271431,7676.000000,-417.000000,16370.000000,80.000000,-50.000000,907.000000
15.272887,7592.000000,-382.000000,16518.000000,-17.000000,-2.000000,666.000000
15.274699,6175.000000,-538.000000,16443.000000,60.000000,-60.000000,812.000000
15.276239,5027.000000,-532.000000,16444.000000,97.000000,-3.000000,669.000000
15.276888,1750.000000,-377.000000,16408.000000,37.000000,7.000000,79.000000
15.277393,486.000000,-302.000000,16305.000000,-23.000000,-30.000000,41.000000
15.277956,382.000000,-314.000000,16374.000000,-203.000000,201.000000,0.000000
15.278713,380.000000,-278.000000,16354.000000,-277.000000,244.000000,-43.000000
15.279603,337.000000,-312.000000,16403.000000,-258.000000,235.000000,-56.000000
15.284695,316.000000,-373.000000,16415.000000,-185.000000,216.000000,-74.000000
15.300640,289.000000,-394.000000,16370.000000,-165.000000,200.000000,-59.000000
15.301929,292.000000,-419.000000,16375.000000,-179.000000,140.000000,-132.000000
15.376950,449.000000,-1099.000000,16401.000000,-195.000000,81.000000,-383.000000
15.378465,-179.000000,-233.000000,16332.000000,-234.000000,37.000000,-292.000000
15.378961,-54.000000,-310.000000,16357.000000,-163.000000,-27.000000,480.000000
15.379456,-75.000000,-327.000000,16337.000000,-134.000000,-13.000000,768.000000
15.379849,-64.000000,-329.000000,16393.000000,-90.000000,-47.000000,708.000000
15.380308,43.000000,-360.000000,16370.000000,-53.000000,-67.000000,441.000000
15.380748,162.000000,-379.000000,16398.000000,-24.000000,-46.000000,155.000000
15.381243,214.000000,-410.000000,16348.000000,1.000000,-82.000000,30.000000
15.393684,269.000000,-404.000000,16358.000000,22.000000,-70.000000,15.000000
15.408738,294.000000,-392.000000,16350.000000,43.000000,-109.000000,-15.000000
15.409759,334.000000,-356.000000,16399.000000,58.000000,-93.000000,-7.000000
15.501652,371.000000,-343.000000,16353.000000,93.000000,-104.000000,-16.000000
15.504959,395.000000,-349.000000,16388.000000,47.000000,-88.000000,-15.000000
15.506108,397.000000,-377.000000,16353.000000,-1.000000,-72.000000,-25.000000
15.506921,364.000000,-400.000000,16365.000000,24.000000,-78.000000,-27.000000
15.507538,308.000000,-421.000000,16380.000000,9.000000,-70.000000,-39.000000
15.508073,279.000000,-437.000000,16409.000000,5.000000,-41.000000,-15.000000
15.508552,274.000000,-445.000000,16368.000000,-5.000000,-35.000000,-1.000000
15.509408,262.000000,-445.000000,16380.000000,-33.000000,-8.000000,9.000000
15.510058,241.000000,-441.000000,16356.000000,-34.000000,0.000000,12.000000
15.518181,245.000000,-428.000000,16379.000000,-23.000000,48.000000,3.000000
15.520217,225.000000,-422.000000,16372.000000,20.000000,24.000000,-6.000000
15.532883,218.000000,-416.000000,16378.000000,-13.000000,51.000000,23.000000
15.613392,238.000000,-395.000000,16369.000000,19.000000,31.000000,9.000000
15.614603,251.000000,-397.000000,16366.000000,-7.000000,71.000000,13.000000
15.615168,261.000000,-394.000000,16364.000000,-34.000000,55.000000,17.000000
15.615650,287.000000,-368.000000,16398.000000,-65.000000,32.000000,13.000000
15.616099,290.000000,-373.000000,16368.000000,-59.000000,39.000000,20.000000
15.616496,317.000000,-367.000000,16389.000000,-93.000000,38.000000,38.000000
15.617022,333.000000,-365.000000,16368.000000,-57.000000,20.000000,36.000000
15.617423,341.000000,-360.000000,16374.000000,-91.000000,38.000000,26.000000
15.628254,331.000000,-391.000000,16406.000000,-104.000000,43.000000,22.000000
15.631224,301.000000,-410.000000,16377.000000,-119.000000,11.000000,5.000000
15.643199,286.000000,-420.000000,16375.000000,-88.000000,-17.000000,5.000000
15.724601,269.000000,-469.000000,16363.000000,-60.000000,38.000000,23.000000
15.726270,234.000000,-462.000000,16356.000000,82.000000,-1.000000,43.000000
15.726839,217.000000,-500.000000,16392.000000,153.000000,-17.000000,28.000000
15.727341,208.000000,-494.000000,16372.000000,283.000000,-25.000000,22.000000
15.727737,199.000000,-491.000000,16383.000000,394.000000,-5.000000,42.000000
15.728219,200.000000,-499.000000,16386.000000,413.000000,-21.000000,81.000000
15.728609,233.000000,-502.000000,16379.000000,375.000000,30.000000,51.000000
15.729036,260.000000,-505.000000,16368.000000,353.000000,43.000000,23.000000
15.736140,283.000000,-509.000000,16374.000000,284.000000,67.000000,-11.000000
15.751746,1804.000000,-5818.000000,16567.000000,238.000000,162.000000,911.000000
15.752726,1470.000000,-8053.000000,16483.000000,-105.000000,327.000000,3481.000000
15.767394,1388.000000,-8950.000000,16467.000000,-154.000000,67.000000,402.000000
15.848882,1317.000000,-8611.000000,16404.000000,-465.000000,180.000000,159.000000
15.851820,2006.000000,-9446.000000,16475.000000,-714.000000,-32.000000,247.000000
15.853433,1748.000000,-8157.000000,16618.000000,-863.000000,-196.000000,-1186.000000
15.854849,1463.000000,-7527.000000,16396.000000,-820.000000,-325.000000,-1498.000000
15.856334,1274.000000,-7175.000000,16279.000000,-565.000000,-116.000000,-238.000000
15.857660,616.000000,-7088.000000,16467.000000,102.000000,44.000000,-601.000000
15.859535,136.000000,-5117.000000,16311.000000,468.000000,-60.000000,-1908.000000
15.861795,-254.000000,-2860.000000,16324.000000,237.000000,6.000000,-1942.000000
15.864224,-115.000000,-737.000000,16304.000000,-118.000000,102.000000,-471.000000
15.866009,-214.000000,2104.000000,16480.000000,-365.000000,118.000000,1184.000000
15.877818,2.000000,3042.000000,16362.000000,104.000000,178.000000,2712.000000
15.879384,-329.000000,5976.000000,16477.000000,310.000000,-123.000000,926.000000
16.023147,-546.000000,7787.000000,16034.000000,372.000000,-183.000000,318.000000
16.026007,-372.000000,7636.000000,16475.000000,348.000000,-41.000000,-728.000000
16.027488,-808.000000,8783.000000,16641.000000,450.000000,-13.000000,-5117.000000
16.028920,-1321.000000,10171.000000,16268.000000,573.000000,-71.000000,-8149.000000
16.029474,-877.000000,9318.000000,16085.000000,559.000000,29.000000,-7487.000000
16.030099,-848.000000,7890.000000,16219.000000,304.000000,57.000000,-5313.000000
16.030665,-1587.000000,6450.000000,16223.000000,160.000000,142.000000,-3173.000000
16.031159,-5.000000,723.000000,16344.000000,-118.000000,297.000000,-217.000000
16.031605,216.000000,861.000000,16305.000000,-819.000000,395.000000,1840.000000
16.032121,1177.000000,5785.000000,16362.000000,-1192.000000,151.000000,4904.000000
16.032669,1649.000000,6537.000000,16454.000000,-929.000000,-174.000000,3737.000000
16.033235,1267.000000,9482.000000,16323.000000,-365.000000,-163.000000,4669.000000
16.034914,388.000000,10123.000000,16352.000000,-147.000000,-132.000000,5432.000000
16.036509,400.000000,11440.000000,16344.000000,56.000000,-71.000000,5943.000000
16.038104,1297.000000,11141.000000,16329.000000,274.000000,168.000000,5455.000000
16.049732,1357.000000,9713.000000,16462.000000,231.000000,282.000000,4621.000000
16.050621,1158.000000,5813.000000,16191.000000,320.000000,107.000000,4089.000000
16.136930,801.000000,3790.000000,16242.000000,556.000000,194.000000,2714.000000
16.139815,549.000000,1871.000000,16293.000000,611.000000,105.000000,584.000000
16.141379,351.000000,911.000000,16411.000000,-274.000000,129.000000,-1280.000000
16.142470,23.000000,-2191.000000,16939.000000,-851.000000,96.000000,-1886.000000
16.143467,331.000000,-2978.000000,16398.000000,61.000000,134.000000,-1969.000000
16.144309,-25.000000,-4627.000000,16504.000000,1117.000000,229.000000,-3319.000000
16.144944,-424.000000,-4515.000000,16320.000000,780.000000,198.000000,-5148.000000
16.145479,-795.000000,-5095.000000,16334.000000,368.000000,274.000000,-5076.000000
16.146175,-368.000000,-6782.000000,16548.000000,647.000000,24.000000,-2808.000000
16.158645,-695.000000,-6346.000000,16288.000000,479.000000,-108.000000,-1517.000000
16.159924,-172.000000,-6921.000000,16249.000000,-242.000000,-382.000000,-990.000000
16.174391,-17.000000,-7566.000000,16389.000000,-689.000000,-419.000000,-1444.000000
16.254005,-334.000000,-7934.000000,16428.000000,-772.000000,-277.000000,-658.000000
16.255473,-307.000000,-7892.000000,16561.000000,-582.000000,-153.000000,-288.000000
16.257496,-218.000000,-7693.000000,16414.000000,-250.000000,-63.000000,-377.000000
16.259909,-334.000000,-8118.000000,16524.000000,45.000000,15.000000,135.000000
16.261874,-162.000000,-6983.000000,16428.000000,18.000000,-10.000000,307.000000
16.264021,-279.000000,-5062.000000,16332.000000,-34.000000,-5.000000,630.000000
16.265556,-112.000000,-5742.000000,16464.000000,-26.000000,-6.000000,1282.000000
16.268029,-95.000000,-4599.000000,16427.000000,29.000000,24.000000,1177.000000
16.269421,58.000000,-3190.000000,16369.000000,65.000000,12.000000,1444.000000
16.271347,293.000000,-992.000000,16397.000000,252.000000,-2.000000,810.000000
16.283529,317.000000,-420.000000,16384.000000,433.000000,-24.000000,335.000000
16.392707,313.000000,-343.000000,16356.000000,460.000000,65.000000,171.000000
16.394477,297.000000,-299.000000,16378.000000,465.000000,83.000000,133.000000
16.395359,299.000000,-290.000000,16350.000000,427.000000,74.000000,74.000000
16.396233,262.000000,-351.000000,16359.000000,322.000000,89.000000,66.000000
16.398257,213.000000,-356.000000,16358.000000,312.000000,67.000000,46.000000
16.400291,198.000000,-354.000000,16382.000000,323.000000,65.000000,27.000000
16.402687,173.000000,-362.000000,16351.000000,367.000000,44.000000,52.000000
16.404720,170.000000,-362.000000,16353.000000,337.000000,27.000000,30.000000
16.407409,170.000000,-363.000000,16366.000000,270.000000,-19.000000,11.000000
16.408576,185.000000,-367.000000,16357.000000,223.000000,-11.000000,28.000000
16.409394,215.000000,-366.000000,16359.000000,201.000000,-5.000000,27.000000
16.410447,251.000000,-369.000000,16391.000000,134.000000,-13.000000,25.000000
16.422504,275.000000,-360.000000,16371.000000,49.000000,-9.000000,-7.000000
16.423573,300.000000,-362.000000,16377.000000,12.000000,7.000000,7.000000
