Time_s,AccX,AccY,AccZ,GyrX,GyrY,GyrZ
0.764198,0.000000,-3.000000,16394.000000,-14.000000,-4.000000,8.000000
0.830258,1.000000,-4.000000,16390.000000,0.000000,7.000000,2.000000
0.832066,6.000000,-1.000000,16398.000000,-39.000000,14.000000,-6.000000
0.833334,5.000000,-9.000000,16395.000000,10.000000,-23.000000,3.000000
0.833865,4.000000,3.000000,16410.000000,4.000000,-22.000000,-21.000000
0.834358,-2.000000,-10.000000,16412.000000,11.000000,3.000000,-10.000000
0.834911,-9.000000,11.000000,16402.000000,-6.000000,13.000000,17.000000
0.835440,-9.000000,-3.000000,16380.000000,5.000000,1.000000,22.000000
0.837800,-8.000000,-6.000000,16384.000000,-29.000000,2.000000,0.000000
0.838738,1.000000,-17.000000,16393.000000,1.000000,8.000000,-18.000000
0.853798,-10.000000,1.000000,16375.000000,-22.000000,-14.000000,1.000000
0.868878,-6.000000,5.000000,16381.000000,3.000000,-18.000000,7.000000
0.869969,0.000000,2.000000,16381.000000,10.000000,0.000000,-13.000000
0.957072,5.000000,-2.000000,16378.000000,-6.000000,-12.000000,4.000000
0.959717,-11.000000,3.000000,16377.000000,-10.000000,12.000000,3.000000
0.961102,-6.000000,5.000000,16383.000000,7.000000,-15.000000,6.000000
0.961834,2.000000,1.000000,16381.000000,23.000000,-14.000000,-21.000000
0.963865,5.000000,-4.000000,16386.000000,3.000000,18.000000,-3.000000
0.964645,-1.000000,12.000000,16379.000000,-12.000000,-17.000000,0.000000
0.965187,16.000000,-3.000000,16392.000000,4.000000,3.000000,-8.000000
0.966508,8.000000,-12.000000,16386.000000,14.000000,22.000000,12.000000
0.967089,4.000000,-5.000000,16413.000000,9.000000,5.000000,9.000000
0.978007,-9.000000,-16.000000,16379.000000,23.000000,0.000000,6.000000
0.978971,0.000000,-17.000000,16385.000000,4.000000,-6.000000,15.000000
0.993021,-7.000000,2.000000,16387.000000,-5.000000,2.000000,14.000000
1.064698,-8.000000,-8.000000,16386.000000,12.000000,-9.000000,8.000000
1.065303,-8.000000,2.000000,16387.000000,4.000000,-13.000000,-13.000000
1.065789,-3.000000,-3.000000,16367.000000,-20.000000,-8.000000,15.000000
1.066229,-3.000000,-2.000000,16373.000000,-7.000000,-5.000000,-6.000000
1.066654,2.000000,1.000000,16379.000000,-20.000000,22.000000,-7.000000
1.067061,12.000000,5.000000,16379.000000,10.000000,2.000000,-13.000000
1.072659,13.000000,7.000000,16389.000000,2.000000,-14.000000,-4.000000
1.074643,-1.000000,4.000000,16393.000000,-11.000000,-7.000000,8.000000
1.088243,10.000000,0.000000,16387.000000,-9.000000,-3.000000,-9.000000
1.089800,1.000000,1.000000,16381.000000,-16.000000,-7.000000,-3.000000
1.104516,5.000000,-7.000000,16387.000000,-13.000000,-11.000000,-17.000000
1.191978,-6.000000,0.000000,16400.000000,-13.000000,-13.000000,-22.000000
1.192772,-8.000000,3.000000,16376.000000,-3.000000,12.000000,1.000000
1.193395,-10.000000,-6.000000,16383.000000,21.000000,0.000000,-7.000000
1.194039,-4.000000,-4.000000,16397.000000,10.000000,-5.000000,-2.000000
1.194885,-6.000000,2.000000,16378.000000,3.000000,-19.000000,-10.000000
1.195773,-1.000000,-10.000000,16378.000000,14.000000,-5.000000,6.000000
1.196754,-1.000000,-10.000000,16378.000000,6.000000,5.000000,9.000000
1.197644,-1.000000,-3.000000,16404.000000,-2.000000,8.000000,7.000000
1.198321,-3.000000,-11.000000,16387.000000,0.000000,17.000000,1.000000
1.212403,-8.000000,-3.000000,16378.000000,11.000000,-7.000000,-6.000000
1.214413,4.000000,3.000000,16392.000000,0.000000,10.000000,-8.000000
1.227652,11.000000,-18.000000,16379.000000,4.000000,0.000000,-7.000000
1.387370,11.000000,-3.000000,16374.000000,0.000000,-1.000000,8.000000
1.388343,-2.000000,-15.000000,16381.000000,11.000000,8.000000,9.000000
1.390418,4.000000,-2.000000,16388.000000,-2.000000,1.000000,-1.000000
1.391297,-6.000000,8.000000,16376.000000,-23.000000,9.000000,4.000000
1.391937,-8.000000,13.000000,16379.000000,-21.000000,-12.000000,15.000000
1.392423,-3.000000,5.000000,16376.000000,7.000000,-18.000000,-2.000000
1.392993,-5.000000,16.000000,16378.000000,31.000000,8.000000,-11.000000
1.393455,-11.000000,28.000000,16384.000000,1.000000,-13.000000,-3.000000
1.393998,25.000000,-12.000000,16382.000000,-19.000000,4.000000,-1.000000
1.394430,-2.000000,-21.000000,16392.000000,0.000000,-13.000000,18.000000
1.394930,-7.000000,-13.000000,16378.000000,1.000000,1.000000,-11.000000
1.395430,-5.000000,-11.000000,16393.000000,-3.000000,1.000000,-3.000000
1.396054,-4.000000,-17.000000,16395.000000,14.000000,21.000000,-7.000000
1.397639,-10.000000,-15.000000,16389.000000,22.000000,8.000000,-5.000000
1.398380,1.000000,-15.000000,16400.000000,-30.000000,1.000000,-17.000000
1.398901,-3.000000,-15.000000,16386.000000,-14.000000,-1.000000,-8.000000
1.399498,-11.000000,-2.000000,16383.000000,4.000000,-7.000000,-10.000000
1.413887,-7.000000,17.000000,16378.000000,20.000000,-8.000000,-18.000000
1.414666,9.000000,3.000000,16404.000000,14.000000,3.000000,-7.000000
1.429729,-4.000000,7.000000,16380.000000,0.000000,1.000000,6.000000
1.431620,-5.000000,4.000000,16390.000000,17.000000,14.000000,-6.000000
1.516759,3.000000,11.000000,16386.000000,25.000000,9.000000,-4.000000
1.517799,7.000000,6.000000,16371.000000,-26.000000,23.000000,-14.000000
1.518612,-7.000000,5.000000,16377.000000,-4.000000,-4.000000,-24.000000
1.519103,-10.000000,2.000000,16381.000000,-6.000000,-13.000000,2.000000
1.519685,-3.000000,-3.000000,16384.000000,3.000000,-18.000000,-2.000000
1.520098,11.000000,-17.000000,16383.000000,8.000000,-6.000000,0.000000
1.520613,12.000000,-15.000000,16382.000000,15.000000,6.000000,11.000000
1.522592,14.000000,-14.000000,16382.000000,7.000000,-9.000000,14.000000
1.523296,2.000000,-15.000000,16388.000000,-10.000000,-23.000000,-10.000000
1.539091,-7.000000,-1.000000,16379.000000,-5.000000,-7.000000,-3.000000
1.541092,0.000000,-3.000000,16383.000000,21.000000,18.000000,12.000000
1.554970,-1.000000,-1.000000,16411.000000,-5.000000,15.000000,1.000000
1.640762,-4.000000,0.000000,16384.000000,14.000000,-12.000000,-5.000000
1.641528,-5.000000,-1.000000,16381.000000,-11.000000,1.000000,-12.000000
1.642241,3.000000,6.000000,16394.000000,-9.000000,25.000000,-4.000000
1.642748,4.000000,-6.000000,16399.000000,9.000000,2.000000,2.000000
1.643280,2.000000,3.000000,16374.000000,17.000000,-19.000000,3.000000
1.643713,-1.000000,6.000000,16380.000000,-8.000000,4.000000,8.000000
1.644219,11.000000,1.000000,16382.000000,-9.000000,14.000000,-10.000000
1.644625,1.000000,-13.000000,16389.000000,-12.000000,-9.000000,-4.000000
1.648160,10.000000,-10.000000,16393.000000,-2.000000,13.000000,-11.000000
1.663584,-4.000000,-1.000000,16379.000000,10.000000,9.000000,-16.000000
1.665222,-1.000000,-3.000000,16378.000000,-29.000000,-10.000000,-14.000000
1.678919,-5.000000,6.000000,16379.000000,-8.000000,-21.000000,-15.000000
1.680049,-2.000000,2.000000,16359.000000,7.000000,-12.000000,-1.000000
1.764004,-8.000000,18.000000,16385.000000,7.000000,-12.000000,3.000000
1.764777,-6.000000,-1.000000,16392.000000,-7.000000,13.000000,-20.000000
1.765344,-5.000000,-1.000000,16375.000000,-25.000000,-23.000000,-10.000000
1.765945,-5.000000,-10.000000,16394.000000,2.000000,-3.000000,-10.000000
1.766771,6.000000,-4.000000,16391.000000,-7.000000,-1.000000,-16.000000
1.767453,0.000000,-2.000000,16373.000000,-17.000000,-4.000000,-9.000000
1.768096,14.000000,-4.000000,16388.000000,-23.000000,3.000000,-18.000000
1.771962,9.000000,7.000000,16388.000000,-24.000000,-3.000000,-13.000000
1.773148,2.000000,-6.000000,16387.000000,-4.000000,-4.000000,-8.000000
1.787894,6.000000,2.000000,16379.000000,-25.000000,7.000000,-3.000000
1.803572,12.000000,2.000000,16400.000000,-16.000000,-11.000000,-19.000000
1.804744,19.000000,8.000000,16385.000000,-8.000000,-22.000000,-16.000000
1.884846,-6.000000,-6.000000,16384.000000,-33.000000,-3.000000,-29.000000
1.885666,-8.000000,7.000000,16395.000000,15.000000,-21.000000,-13.000000
1.886467,-4.000000,3.000000,16374.000000,-2.000000,10.000000,5.000000
1.887129,-15.000000,1.000000,16391.000000,-9.000000,9.000000,2.000000
1.887796,-6.000000,1.000000,16381.000000,-2.000000,-7.000000,-8.000000
1.888442,-1.000000,-10.000000,16396.000000,-25.000000,22.000000,4.000000
1.888960,-4.000000,0.000000,16382.000000,-5.000000,28.000000,-25.000000
1.889389,5.000000,0.000000,16383.000000,-17.000000,15.000000,-5.000000
1.897080,3.000000,2.000000,16380.000000,3.000000,-3.000000,-20.000000
1.912655,0.000000,-12.000000,16407.000000,14.000000,-5.000000,0.000000
1.913569,0.000000,-5.000000,16386.000000,2.000000,-23.000000,3.000000
1.928534,2.000000,-14.000000,16382.000000,15.000000,9.000000,11.000000
2.000324,-2.000000,-11.000000,16385.000000,-4.000000,3.000000,-9.000000
2.001078,3.000000,5.000000,16386.000000,9.000000,-10.000000,2.000000
2.002004,1.000000,13.000000,16391.000000,10.000000,-15.000000,5.000000
2.002810,1.000000,13.000000,16391.000000,13.000000,11.000000,6.000000
2.003434,8.000000,8.000000,16377.000000,-8.000000,4.000000,12.000000
2.003860,9.000000,0.000000,16387.000000,-21.000000,-1.000000,-1.000000
2.004820,3.000000,4.000000,16398.000000,2.000000,-8.000000,-10.000000
2.005419,10.000000,-11.000000,16388.000000,-6.000000,10.000000,-9.000000
2.020953,-13.000000,-3.000000,16385.000000,-18.000000,16.000000,-10.000000
2.036890,-3.000000,-10.000000,16378.000000,-3.000000,6.000000,-13.000000
2.037727,-4.000000,-11.000000,16384.000000,11.000000,-25.000000,3.000000
2.109730,0.000000,-16.000000,16406.000000,7.000000,3.000000,4.000000
2.110497,-11.000000,0.000000,16402.000000,-10.000000,-16.000000,2.000000
2.111536,2.000000,-4.000000,16389.000000,-5.000000,-6.000000,-27.000000
2.112774,-6.000000,7.000000,16398.000000,6.000000,0.000000,-25.000000
2.113265,2.000000,-8.000000,16394.000000,-12.000000,25.000000,-13.000000
2.113688,-4.000000,-3.000000,16372.000000,0.000000,-14.000000,12.000000
2.114791,-3.000000,-4.000000,16381.000000,8.000000,-15.000000,12.000000
2.115391,7.000000,5.000000,16383.000000,17.000000,2.000000,20.000000
2.130767,-1.000000,-4.000000,16391.000000,-35.000000,-10.000000,-5.000000
2.147031,5.000000,6.000000,16380.000000,12.000000,-16.000000,-13.000000
2.148366,8.000000,11.000000,16375.000000,-9.000000,5.000000,-13.000000
2.259875,-2.000000,13.000000,16374.000000,13.000000,-22.000000,-12.000000
2.261785,3.000000,12.000000,16383.000000,-22.000000,6.000000,-11.000000
2.263716,6.000000,-9.000000,16386.000000,-16.000000,19.000000,-12.000000
2.265508,0.000000,5.000000,16378.000000,-45.000000,30.000000,-24.000000
2.267235,-2.000000,-17.000000,16379.000000,19.000000,-14.000000,-2.000000
2.268239,7.000000,-8.000000,16391.000000,31.000000,-19.000000,-5.000000
2.268709,8.000000,-13.000000,16391.000000,22.000000,-2.000000,-9.000000
2.269232,-3.000000,-3.000000,16394.000000,-11.000000,-21.000000,0.000000
2.269681,-8.000000,4.000000,16393.000000,28.000000,-37.000000,13.000000
2.270144,-8.000000,9.000000,16388.000000,6.000000,-15.000000,1.000000
2.270900,-4.000000,5.000000,16396.000000,5.000000,-4.000000,-27.000000
2.272625,2.000000,-2.000000,16386.000000,-23.000000,14.000000,-1.000000
2.287847,-1.000000,-3.000000,16379.000000,15.000000,24.000000,9.000000
2.288708,9.000000,-5.000000,16398.000000,20.000000,12.000000,16.000000
2.379716,1.000000,10.000000,16399.000000,-8.000000,12.000000,1.000000
2.380603,7.000000,-3.000000,16405.000000,-23.000000,21.000000,-2.000000
2.381363,-2.000000,14.000000,16384.000000,-6.000000,-9.000000,-3.000000
2.381983,-1.000000,-9.000000,16394.000000,-11.000000,0.000000,-1.000000
2.384388,3.000000,-9.000000,16426.000000,2.000000,17.000000,-14.000000
2.386443,3.000000,-1.000000,16397.000000,2.000000,15.000000,3.000000
2.388099,-6.000000,-9.000000,16376.000000,7.000000,13.000000,-15.000000
2.390242,-1.000000,-4.000000,16388.000000,13.000000,4.000000,-5.000000
2.392644,-3.000000,-9.000000,16394.000000,15.000000,7.000000,-13.000000
2.394588,2.000000,-4.000000,16395.000000,3.000000,4.000000,4.000000
2.398222,2.000000,13.000000,16397.000000,7.000000,1.000000,5.000000
2.413649,4.000000,-2.000000,16395.000000,4.000000,-9.000000,-7.000000
2.493812,-10.000000,7.000000,16380.000000,14.000000,-7.000000,4.000000
2.494491,-1.000000,-4.000000,16408.000000,3.000000,-10.000000,-16.000000
2.494935,-5.000000,4.000000,16385.000000,1.000000,13.000000,-16.000000
2.495388,1.000000,9.000000,16385.000000,-4.000000,20.000000,-2.000000
2.495761,-4.000000,2.000000,16394.000000,3.000000,-16.000000,2.000000
2.496109,16.000000,11.000000,16391.000000,2.000000,4.000000,-5.000000
2.496535,13.000000,1.000000,16379.000000,-15.000000,-13.000000,-20.000000
2.496876,-9.000000,10.000000,16378.000000,-21.000000,17.000000,-18.000000
2.506302,-6.000000,5.000000,16401.000000,1.000000,4.000000,1.000000
2.507184,1.000000,-9.000000,16393.000000,31.000000,-6.000000,8.000000
2.521467,3.000000,-19.000000,16397.000000,23.000000,-11.000000,4.000000
2.600529,-11.000000,-2.000000,16383.000000,20.000000,-15.000000,-5.000000
2.602333,-10.000000,0.000000,16380.000000,-7.000000,11.000000,-2.000000
2.604039,-4.000000,-6.000000,16379.000000,9.000000,10.000000,-4.000000
2.604802,-2.000000,-8.000000,16400.000000,-4.000000,17.000000,-12.000000
2.605350,7.000000,-4.000000,16405.000000,7.000000,2.000000,-5.000000
2.605774,0.000000,-11.000000,16418.000000,8.000000,-11.000000,2.000000
2.606151,4.000000,-3.000000,16394.000000,-18.000000,-1.000000,11.000000
2.606488,-3.000000,0.000000,16383.000000,21.000000,-14.000000,-11.000000
2.614743,10.000000,-4.000000,16391.000000,7.000000,5.000000,-1.000000
2.615738,1.000000,-3.000000,16397.000000,-19.000000,8.000000,1.000000
2.630585,-3.000000,-3.000000,16390.000000,-6.000000,-9.000000,3.000000
2.708823,6.000000,-16.000000,16380.000000,-3.000000,5.000000,-5.000000
2.709751,-2.000000,-8.000000,16380.000000,11.000000,17.000000,9.000000
2.710404,0.000000,-2.000000,16397.000000,-31.000000,0.000000,-11.000000
2.711014,-7.000000,9.000000,16390.000000,-6.000000,-6.000000,16.000000
2.711644,6.000000,-14.000000,16382.000000,-17.000000,15.000000,3.000000
2.712262,-7.000000,12.000000,16379.000000,-4.000000,-4.000000,8.000000
2.713083,4.000000,1.000000,16386.000000,15.000000,-23.000000,2.000000
2.713727,1.000000,-3.000000,16398.000000,-5.000000,-8.000000,1.000000
2.724558,-1.000000,-1.000000,16379.000000,16.000000,-21.000000,0.000000
2.726813,-1.000000,4.000000,16379.000000,13.000000,-7.000000,-20.000000
2.740474,3.000000,6.000000,16406.000000,5.000000,3.000000,-9.000000
2.802912,0.000000,-4.000000,16392.000000,-20.000000,13.000000,-5.000000
2.804211,8.000000,-7.000000,16403.000000,-4.000000,-7.000000,13.000000
2.810278,8.000000,-11.000000,16400.000000,-1.000000,9.000000,3.000000
2.810985,16.000000,-3.000000,16385.000000,-5.000000,-4.000000,16.000000
2.811604,5.000000,2.000000,16407.000000,19.000000,24.000000,16.000000
2.812455,9.000000,-6.000000,16399.000000,7.000000,-5.000000,3.000000
2.818974,10.000000,5.000000,16391.000000,-9.000000,7.000000,-2.000000
2.820037,8.000000,0.000000,16394.000000,1.000000,-1.000000,-6.000000
2.833698,-6.000000,6.000000,16394.000000,-1.000000,14.000000,-19.000000
2.835218,-3.000000,6.000000,16390.000000,16.000000,-11.000000,-13.000000
2.849343,5.000000,9.000000,16380.000000,-16.000000,-2.000000,2.000000
2.933757,10.000000,9.000000,16390.000000,7.000000,-12.000000,-4.000000
2.935485,1.000000,-4.000000,16389.000000,-5.000000,-12.000000,1.000000
2.936138,-7.000000,7.000000,16382.000000,13.000000,-17.000000,5.000000
2.936725,2.000000,-2.000000,16399.000000,14.000000,10.000000,0.000000
2.937196,0.000000,4.000000,16387.000000,2.000000,-2.000000,29.000000
2.937718,3.000000,2.000000,16365.000000,5.000000,11.000000,9.000000
2.938128,-2.000000,-13.000000,16392.000000,13.000000,9.000000,25.000000
2.938618,1.000000,-1.000000,16379.000000,1.000000,13.000000,7.000000
2.943516,4.000000,-3.000000,16393.000000,-8.000000,-2.000000,-1.000000
2.959163,-11.000000,1.000000,16368.000000,2.000000,-9.000000,0.000000
2.960181,-1.000000,8.000000,16402.000000,6.000000,-4.000000,9.000000
3.041466,4.000000,-2.000000,16408.000000,-6.000000,8.000000,-3.000000
3.043794,5.000000,-9.000000,16416.000000,-14.000000,17.000000,2.000000
3.044490,2.000000,-6.000000,16410.000000,3.000000,16.000000,13.000000
3.044968,-1.000000,-6.000000,16413.000000,44.000000,9.000000,29.000000
3.045392,4.000000,-7.000000,16391.000000,5.000000,11.000000,12.000000
3.045890,4.000000,5.000000,16412.000000,24.000000,-10.000000,4.000000
3.046282,5.000000,7.000000,16396.000000,38.000000,14.000000,-12.000000
3.046781,12.000000,-1.000000,16387.000000,26.000000,6.000000,7.000000
3.051833,-8.000000,-2.000000,16379.000000,14.000000,12.000000,15.000000
3.067031,4.000000,-3.000000,16390.000000,-4.000000,-11.000000,20.000000
3.068703,-15.000000,0.000000,16376.000000,-15.000000,-1.000000,35.000000
3.082144,0.000000,0.000000,16370.000000,-13.000000,3.000000,7.000000
3.165279,0.000000,0.000000,16380.000000,15.000000,14.000000,-1.000000
3.166700,0.000000,2.000000,16389.000000,1.000000,4.000000,-2.000000
3.167639,-7.000000,4.000000,16386.000000,-16.000000,8.000000,0.000000
3.168812,-2.000000,-7.000000,16398.000000,-14.000000,-5.000000,-1.000000
3.169620,-4.000000,2.000000,16390.000000,-16.000000,-11.000000,9.000000
3.170319,-2.000000,0.000000,16397.000000,-12.000000,-16.000000,7.000000
3.170937,9.000000,-11.000000,16409.000000,-11.000000,11.000000,2.000000
3.171805,16.000000,0.000000,16375.000000,13.000000,24.000000,10.000000
3.175831,2.000000,-1.000000,16399.000000,0.000000,11.000000,-7.000000
3.177013,6.000000,8.000000,16388.000000,-2.000000,5.000000,-17.000000
3.191822,2.000000,2.000000,16386.000000,-16.000000,7.000000,-11.000000
3.286664,9.000000,-2.000000,16391.000000,10.000000,-8.000000,7.000000
3.289594,6.000000,-4.000000,16405.000000,-9.000000,19.000000,2.000000
3.291186,2.000000,-1.000000,16386.000000,0.000000,-1.000000,-18.000000
3.292759,5.000000,-18.000000,16399.000000,0.000000,-6.000000,11.000000
3.293511,1.000000,2.000000,16385.000000,16.000000,-1.000000,15.000000
3.294126,-3.000000,8.000000,16388.000000,7.000000,-6.000000,-14.000000
3.294587,5.000000,13.000000,16392.000000,3.000000,21.000000,-12.000000
3.295159,12.000000,7.000000,16384.000000,2.000000,19.000000,-11.000000
3.295592,5.000000,-4.000000,16397.000000,-4.000000,-17.000000,-17.000000
3.296114,0.000000,-3.000000,16379.000000,-5.000000,-4.000000,0.000000
3.301841,5.000000,4.000000,16373.000000,-6.000000,-9.000000,2.000000
3.317160,6.000000,-6.000000,16402.000000,12.000000,-4.000000,-17.000000
3.318622,4.000000,-4.000000,16393.000000,-1.000000,10.000000,3.000000
3.396993,6.000000,-4.000000,16388.000000,13.000000,-13.000000,17.000000
3.398384,2.000000,2.000000,16383.000000,-16.000000,-3.000000,3.000000
3.398923,4.000000,-7.000000,16389.000000,-11.000000,-3.000000,-21.000000
3.399355,-5.000000,-2.000000,16381.000000,-12.000000,23.000000,-23.000000
3.399810,7.000000,-3.000000,16405.000000,-9.000000,25.000000,-4.000000
3.400290,-2.000000,-15.000000,16388.000000,8.000000,3.000000,-1.000000
3.400759,3.000000,0.000000,16393.000000,21.000000,16.000000,8.000000
3.401241,-3.000000,6.000000,16372.000000,8.000000,-12.000000,-10.000000
3.410660,0.000000,-11.000000,16398.000000,-10.000000,6.000000,-17.000000
3.425957,8.000000,-13.000000,16386.000000,-13.000000,25.000000,-12.000000
3.428332,1.000000,0.000000,16401.000000,-36.000000,18.000000,-13.000000
3.513512,-4.000000,-4.000000,16380.000000,-13.000000,-8.000000,-12.000000
3.514741,9.000000,-5.000000,16408.000000,1.000000,14.000000,16.000000
3.515232,1.000000,1.000000,16385.000000,16.000000,-25.000000,-3.000000
3.515754,-2.000000,-4.000000,16385.000000,-2.000000,0.000000,-8.000000
3.516264,3.000000,-1.000000,16385.000000,6.000000,11.000000,6.000000
3.516801,2.000000,-8.000000,16395.000000,2.000000,17.000000,-15.000000
3.517219,-3.000000,-9.000000,16403.000000,4.000000,14.000000,-6.000000
3.517886,-2.000000,-15.000000,16400.000000,11.000000,1.000000,-10.000000
3.521263,-2.000000,7.000000,16385.000000,12.000000,18.000000,22.000000
3.537389,6.000000,18.000000,16388.000000,-8.000000,15.000000,11.000000
3.538750,16.000000,-11.000000,16389.000000,-9.000000,-10.000000,-5.000000
3.552321,14.000000,2.000000,16389.000000,-15.000000,17.000000,17.000000
3.639311,4.000000,-4.000000,16385.000000,-5.000000,7.000000,19.000000
3.640972,-2.000000,3.000000,16385.000000,17.000000,-9.000000,9.000000
3.641916,4.000000,7.000000,16379.000000,14.000000,-5.000000,-14.000000
3.643259,-6.000000,2.000000,16381.000000,7.000000,1.000000,-3.000000
3.644235,11.000000,-4.000000,16379.000000,4.000000,9.000000,-8.000000
3.644948,4.000000,-4.000000,16385.000000,-21.000000,1.000000,-9.000000
3.645578,4.000000,-3.000000,16385.000000,-28.000000,-11.000000,6.000000
3.646173,4.000000,-7.000000,16386.000000,-13.000000,-14.000000,-6.000000
3.646948,-8.000000,-4.000000,16386.000000,-20.000000,1.000000,-21.000000
3.658570,9.000000,-6.000000,16393.000000,4.000000,1.000000,-11.000000
3.659566,2.000000,-8.000000,16391.000000,8.000000,4.000000,-10.000000
3.674520,-2.000000,13.000000,16388.000000,-24.000000,-8.000000,1.000000
3.675761,-5.000000,2.000000,16390.000000,8.000000,-1.000000,1.000000
3.760698,9.000000,2.000000,16388.000000,-35.000000,27.000000,11.000000
3.762728,-5.000000,-4.000000,16379.000000,-9.000000,10.000000,8.000000
3.763711,-1.000000,7.000000,16379.000000,-4.000000,-1.000000,-1.000000
3.764359,-3.000000,-6.000000,16403.000000,0.000000,-5.000000,8.000000
3.764826,-2.000000,-4.000000,16381.000000,6.000000,-15.000000,12.000000
3.765379,-4.000000,1.000000,16403.000000,12.000000,-9.000000,11.000000
3.765896,2.000000,4.000000,16382.000000,-19.000000,7.000000,-6.000000
3.767634,9.000000,-11.000000,16393.000000,-5.000000,14.000000,-6.000000
3.768955,4.000000,-10.000000,16382.000000,-10.000000,-8.000000,-3.000000
3.783015,1.000000,-8.000000,16392.000000,13.000000,15.000000,9.000000
3.798120,7.000000,-7.000000,16398.000000,14.000000,3.000000,8.000000
3.799975,0.000000,-5.000000,16383.000000,6.000000,46.000000,1.000000
3.887537,-7.000000,1.000000,16380.000000,23.000000,16.000000,5.000000
3.889231,2.000000,-4.000000,16387.000000,28.000000,-9.000000,-12.000000
3.889922,1.000000,7.000000,16377.000000,1.000000,-7.000000,-3.000000
3.890444,-5.000000,-5.000000,16394.000000,3.000000,-4.000000,5.000000
3.890997,4.000000,-14.000000,16390.000000,25.000000,1.000000,-1.000000
3.891430,-1.000000,4.000000,16381.000000,15.000000,-19.000000,-5.000000
3.892711,-6.000000,5.000000,16381.000000,0.000000,-1.000000,-4.000000
3.893851,-5.000000,7.000000,16391.000000,20.000000,-11.000000,5.000000
3.895604,3.000000,-4.000000,16405.000000,5.000000,-3.000000,15.000000
3.908620,0.000000,2.000000,16398.000000,19.000000,3.000000,16.000000
3.910968,1.000000,6.000000,16391.000000,21.000000,22.000000,-7.000000
3.924927,-1.000000,7.000000,16409.000000,4.000000,11.000000,-6.000000
3.926361,-9.000000,8.000000,16378.000000,-24.000000,-15.000000,13.000000
4.038310,-8.000000,3.000000,16394.000000,8.000000,-17.000000,4.000000
4.040262,-2.000000,4.000000,16386.000000,10.000000,12.000000,8.000000
4.041162,-2.000000,5.000000,16382.000000,12.000000,8.000000,-3.000000
4.042383,4.000000,3.000000,16392.000000,-6.000000,12.000000,5.000000
4.043443,-1.000000,12.000000,16396.000000,1.000000,7.000000,17.000000
4.044247,1.000000,3.000000,16394.000000,-11.000000,-2.000000,5.000000
4.044920,-8.000000,4.000000,16381.000000,0.000000,-9.000000,11.000000
4.045801,7.000000,-3.000000,16406.000000,-2.000000,-1.000000,1.000000
4.046678,1.000000,-7.000000,16400.000000,11.000000,-7.000000,-1.000000
4.047548,-6.000000,-3.000000,16384.000000,5.000000,-6.000000,2.000000
4.048290,-1.000000,-3.000000,16378.000000,-13.000000,-2.000000,10.000000
4.049197,1.000000,1.000000,16389.000000,-8.000000,1.000000,2.000000
4.065162,7.000000,4.000000,16389.000000,20.000000,-15.000000,11.000000
4.067759,1.000000,-8.000000,16413.000000,11.000000,-7.000000,28.000000
4.176696,-5.000000,-2.000000,16392.000000,-3.000000,9.000000,12.000000
4.180486,5.000000,3.000000,16399.000000,10.000000,3.000000,5.000000
4.182464,-8.000000,-11.000000,16392.000000,11.000000,-15.000000,-8.000000
4.184601,6.000000,-5.000000,16383.000000,-19.000000,8.000000,5.000000
4.185761,12.000000,-10.000000,16398.000000,6.000000,4.000000,16.000000
4.186542,-2.000000,-7.000000,16395.000000,19.000000,-6.000000,-4.000000
4.187356,5.000000,2.000000,16385.000000,6.000000,6.000000,-12.000000
4.188626,6.000000,3.000000,16394.000000,5.000000,12.000000,5.000000
4.189565,3.000000,12.000000,16390.000000,12.000000,-3.000000,15.000000
4.190278,4.000000,-9.000000,16394.000000,-9.000000,-4.000000,-4.000000
4.190933,-7.000000,9.000000,16387.000000,38.000000,2.000000,-11.000000
4.191900,10.000000,-6.000000,16393.000000,15.000000,16.000000,-11.000000
4.204504,1.000000,-1.000000,16382.000000,-9.000000,-10.000000,-6.000000
4.205708,1.000000,-16.000000,16379.000000,-1.000000,3.000000,0.000000
4.310461,0.000000,-4.000000,16387.000000,9.000000,-20.000000,9.000000
4.312345,0.000000,4.000000,16384.000000,29.000000,-20.000000,2.000000
4.313810,9.000000,5.000000,16378.000000,10.000000,2.000000,4.000000
4.315076,-2.000000,-8.000000,16415.000000,-2.000000,16.000000,-3.000000
4.316123,1.000000,-3.000000,16375.000000,8.000000,5.000000,2.000000
4.317433,-5.000000,-8.000000,16394.000000,1.000000,-11.000000,-15.000000
4.318764,-4.000000,-21.000000,16403.000000,22.000000,-8.000000,11.000000
4.320894,-6.000000,9.000000,16384.000000,10.000000,2.000000,4.000000
4.322980,-4.000000,12.000000,16380.000000,15.000000,-6.000000,-10.000000
4.325585,-7.000000,-1.000000,16375.000000,-14.000000,9.000000,-39.000000
4.329322,0.000000,-2.000000,16394.000000,-27.000000,19.000000,-14.000000
4.331832,5.000000,-12.000000,16384.000000,-10.000000,3.000000,11.000000
4.345019,-3.000000,4.000000,16383.000000,15.000000,5.000000,0.000000
4.346358,0.000000,4.000000,16383.000000,-11.000000,14.000000,-20.000000
4.463872,-1.000000,-16.000000,16387.000000,-7.000000,-1.000000,-16.000000
4.465431,4.000000,-8.000000,16402.000000,-21.000000,0.000000,-16.000000
4.466137,6.000000,-8.000000,16392.000000,9.000000,-23.000000,3.000000
4.466964,3.000000,11.000000,16400.000000,-1.000000,-2.000000,-10.000000
4.467832,-7.000000,-5.000000,16389.000000,13.000000,-18.000000,-5.000000
4.468656,3.000000,0.000000,16394.000000,14.000000,12.000000,-6.000000
4.469653,0.000000,1.000000,16397.000000,15.000000,2.000000,3.000000
4.470435,10.000000,-18.000000,16386.000000,-11.000000,10.000000,-2.000000
4.471098,-2.000000,-5.000000,16384.000000,-16.000000,1.000000,-11.000000
4.471856,-7.000000,4.000000,16400.000000,-25.000000,3.000000,-23.000000
4.472534,-3.000000,-7.000000,16394.000000,14.000000,-11.000000,21.000000
4.473330,-1.000000,-6.000000,16383.000000,-3.000000,12.000000,6.000000
4.484856,5.000000,-12.000000,16384.000000,4.000000,-17.000000,29.000000
4.486719,4.000000,2.000000,16405.000000,2.000000,-1.000000,14.000000
4.603108,10.000000,4.000000,16393.000000,22.000000,3.000000,1.000000
4.606662,9.000000,-4.000000,16416.000000,-4.000000,4.000000,-8.000000
4.608383,4.000000,-11.000000,16383.000000,11.000000,7.000000,-19.000000
4.609917,7.000000,-6.000000,16386.000000,10.000000,-6.000000,-17.000000
4.611145,-1.000000,-12.000000,16384.000000,25.000000,-3.000000,-7.000000
4.612213,-8.000000,5.000000,16383.000000,30.000000,9.000000,20.000000
4.613233,0.000000,-3.000000,16393.000000,30.000000,-13.000000,17.000000
4.614043,1.000000,-1.000000,16397.000000,14.000000,6.000000,4.000000
4.614881,0.000000,2.000000,16390.000000,-6.000000,8.000000,15.000000
4.615840,-8.000000,3.000000,16396.000000,-13.000000,-14.000000,11.000000
4.616873,-1.000000,-5.000000,16380.000000,17.000000,-6.000000,3.000000
4.617867,-8.000000,0.000000,16387.000000,12.000000,22.000000,-8.000000
4.625771,6.000000,-1.000000,16388.000000,30.000000,-3.000000,8.000000
4.627439,16.000000,-4.000000,16392.000000,9.000000,0.000000,1.000000
4.640747,3.000000,-12.000000,16389.000000,6.000000,10.000000,-3.000000
4.749443,2.000000,-1.000000,16392.000000,-13.000000,-7.000000,0.000000
4.753402,6.000000,2.000000,16375.000000,-13.000000,6.000000,-4.000000
4.754162,6.000000,7.000000,16381.000000,-21.000000,10.000000,13.000000
4.754892,0.000000,-1.000000,16379.000000,10.000000,-7.000000,5.000000
4.755586,3.000000,3.000000,16377.000000,-2.000000,-7.000000,-1.000000
4.756126,4.000000,-11.000000,16393.000000,-5.000000,0.000000,-7.000000
4.757037,-12.000000,10.000000,16381.000000,-11.000000,11.000000,-17.000000
4.757802,-6.000000,2.000000,16384.000000,-7.000000,23.000000,6.000000
4.758436,-7.000000,6.000000,16378.000000,4.000000,6.000000,-5.000000
4.759653,-9.000000,0.000000,16401.000000,2.000000,16.000000,-21.000000
4.761995,-1.000000,-10.000000,16384.000000,-1.000000,7.000000,0.000000
4.764747,0.000000,3.000000,16379.000000,25.000000,5.000000,21.000000
4.765562,-2.000000,4.000000,16372.000000,15.000000,10.000000,9.000000
4.779863,13.000000,2.000000,16385.000000,1.000000,33.000000,4.000000
4.858677,7.000000,-2.000000,16395.000000,-17.000000,21.000000,8.000000
4.861851,9.000000,-1.000000,16400.000000,22.000000,14.000000,4.000000
4.863203,6.000000,6.000000,16374.000000,-2.000000,14.000000,-18.000000
4.863912,-5.000000,4.000000,16371.000000,-7.000000,-11.000000,-21.000000
4.864511,-2.000000,5.000000,16389.000000,-2.000000,12.000000,1.000000
4.864961,12.000000,1.000000,16384.000000,-7.000000,1.000000,-2.000000
4.865495,0.000000,-2.000000,16392.000000,19.000000,-11.000000,-1.000000
4.867232,2.000000,-7.000000,16399.000000,29.000000,-19.000000,-7.000000
4.874765,-5.000000,-4.000000,16384.000000,15.000000,-6.000000,-3.000000
4.876694,6.000000,0.000000,16401.000000,24.000000,5.000000,-10.000000
4.890743,-2.000000,1.000000,16383.000000,-1.000000,9.000000,8.000000
4.980460,-2.000000,-4.000000,16381.000000,5.000000,8.000000,10.000000
4.984280,-6.000000,2.000000,16396.000000,-1.000000,4.000000,8.000000
4.986079,0.000000,-2.000000,16390.000000,-7.000000,-5.000000,5.000000
4.986754,8.000000,-4.000000,16386.000000,-5.000000,-1.000000,4.000000
4.987362,8.000000,-3.000000,16399.000000,-8.000000,-15.000000,33.000000
4.987895,9.000000,0.000000,16384.000000,-12.000000,5.000000,5.000000
4.988374,-5.000000,-1.000000,16386.000000,-7.000000,18.000000,-25.000000
4.988839,-5.000000,5.000000,16388.000000,-5.000000,4.000000,-33.000000
4.989421,-13.000000,11.000000,16384.000000,23.000000,-12.000000,21.000000
4.989939,-3.000000,2.000000,16392.000000,16.000000,-8.000000,19.000000
5.001089,-9.000000,-10.000000,16380.000000,9.000000,-16.000000,30.000000
5.015929,3.000000,-16.000000,16384.000000,2.000000,11.000000,6.000000
5.086196,2.000000,-2.000000,16403.000000,-1.000000,0.000000,9.000000
5.087846,6.000000,-8.000000,16392.000000,0.000000,-12.000000,10.000000
5.088558,15.000000,-1.000000,16387.000000,-6.000000,-5.000000,8.000000
5.089075,-2.000000,-14.000000,16416.000000,17.000000,-13.000000,12.000000
5.089582,7.000000,-10.000000,16405.000000,12.000000,4.000000,10.000000
5.089997,1.000000,0.000000,16390.000000,-13.000000,7.000000,2.000000
5.090473,2.000000,-1.000000,16396.000000,8.000000,19.000000,9.000000
5.094458,-5.000000,6.000000,16375.000000,3.000000,7.000000,-1.000000
5.096205,-5.000000,-2.000000,16381.000000,-4.000000,12.000000,27.000000
5.110700,1.000000,-4.000000,16402.000000,23.000000,5.000000,4.000000
5.126100,-6.000000,-7.000000,16391.000000,3.000000,-10.000000,6.000000
5.194493,-1.000000,-14.000000,16389.000000,1.000000,12.000000,0.000000
5.195715,-2.000000,12.000000,16389.000000,-19.000000,-7.000000,-5.000000
5.196194,-7.000000,1.000000,16387.000000,-3.000000,-14.000000,-11.000000
5.196681,-5.000000,-8.000000,16379.000000,13.000000,-5.000000,0.000000
5.197079,-10.000000,-10.000000,16388.000000,-4.000000,-4.000000,-1.000000
5.197569,-7.000000,5.000000,16379.000000,-22.000000,-30.000000,14.000000
5.198007,1.000000,-13.000000,16418.000000,1.000000,7.000000,-8.000000
5.203511,-8.000000,-8.000000,16387.000000,24.000000,9.000000,-1.000000
5.204376,-4.000000,0.000000,16383.000000,40.000000,-1.000000,3.000000
5.220183,-1.000000,-9.000000,16383.000000,26.000000,-3.000000,-17.000000
5.235431,4.000000,6.000000,16387.000000,-8.000000,-4.000000,-13.000000
5.236885,-7.000000,-1.000000,16387.000000,-9.000000,-2.000000,-6.000000
5.311884,13.000000,-3.000000,16394.000000,-8.000000,-16.000000,-1.000000
5.315832,3.000000,2.000000,16394.000000,-16.000000,-15.000000,4.000000
5.317122,5.000000,5.000000,16378.000000,-35.000000,-4.000000,-9.000000
5.318054,3.000000,3.000000,16395.000000,-7.000000,-10.000000,-3.000000
5.318796,-2.000000,-17.000000,16383.000000,-20.000000,9.000000,11.000000
5.319461,-1.000000,-12.000000,16393.000000,5.000000,-2.000000,0.000000
5.320095,-1.000000,-2.000000,16390.000000,-23.000000,18.000000,-1.000000
5.320742,-8.000000,-2.000000,16384.000000,-12.000000,-5.000000,5.000000
5.330090,-6.000000,2.000000,16396.000000,-21.000000,-34.000000,-9.000000
5.346141,-5.000000,-13.000000,16380.000000,22.000000,-24.000000,1.000000
5.347149,-2.000000,6.000000,16385.000000,5.000000,-10.000000,3.000000
5.419032,2.000000,4.000000,16394.000000,2.000000,-8.000000,4.000000
5.420824,11.000000,8.000000,16409.000000,-23.000000,13.000000,6.000000
5.421615,0.000000,6.000000,16392.000000,-16.000000,-15.000000,0.000000
5.422147,-2.000000,8.000000,16394.000000,-4.000000,10.000000,-4.000000
5.422826,8.000000,5.000000,16391.000000,-13.000000,-5.000000,-1.000000
5.423368,1.000000,-9.000000,16400.000000,-12.000000,-1.000000,2.000000
5.424555,-5.000000,-5.000000,16388.000000,-2.000000,-16.000000,6.000000
5.425656,-8.000000,17.000000,16402.000000,-1.000000,-7.000000,3.000000
5.441559,6.000000,-4.000000,16392.000000,16.000000,-9.000000,8.000000
5.457314,4.000000,-12.000000,16403.000000,-8.000000,0.000000,1.000000
5.458729,-2.000000,-4.000000,16391.000000,9.000000,-13.000000,14.000000
5.532416,1.000000,-12.000000,16395.000000,-3.000000,20.000000,32.000000
5.533871,7.000000,3.000000,16389.000000,33.000000,6.000000,26.000000
5.535068,2.000000,5.000000,16384.000000,17.000000,-7.000000,2.000000
5.536183,3.000000,-2.000000,16393.000000,23.000000,-27.000000,7.000000
5.537824,5.000000,-9.000000,16379.000000,12.000000,-14.000000,8.000000
5.539383,-8.000000,-1.000000,16388.000000,-2.000000,-3.000000,-14.000000
5.541029,-6.000000,4.000000,16406.000000,4.000000,-10.000000,2.000000
5.541779,-2.000000,9.000000,16395.000000,10.000000,-6.000000,-2.000000
5.551125,-8.000000,-14.000000,16384.000000,20.000000,-6.000000,9.000000
5.565960,10.000000,-6.000000,16394.000000,-2.000000,-8.000000,3.000000
5.567546,-1.000000,2.000000,16373.000000,-5.000000,-9.000000,-17.000000
5.663569,-14.000000,4.000000,16402.000000,8.000000,-9.000000,-24.000000
5.664895,-4.000000,2.000000,16397.000000,-34.000000,4.000000,-17.000000
5.665486,-5.000000,0.000000,16390.000000,11.000000,2.000000,-3.000000
5.665931,0.000000,-2.000000,16391.000000,1.000000,4.000000,-1.000000
5.666526,12.000000,-3.000000,16415.000000,5.000000,12.000000,14.000000
5.667019,4.000000,-9.000000,16397.000000,-8.000000,18.000000,18.000000
5.667570,-3.000000,1.000000,16395.000000,19.000000,-1.000000,2.000000
5.668206,3.000000,2.000000,16378.000000,17.000000,-13.000000,7.000000
5.668697,-10.000000,10.000000,16399.000000,5.000000,-15.000000,-7.000000
5.675383,1.000000,-9.000000,16404.000000,12.000000,-7.000000,11.000000
5.676447,-1.000000,2.000000,16390.000000,8.000000,-13.000000,32.000000
5.691155,1.000000,2.000000,16388.000000,4.000000,14.000000,1.000000
5.776773,1.000000,7.000000,16381.000000,4.000000,-28.000000,-10.000000
5.779690,-2.000000,-11.000000,16394.000000,-8.000000,4.000000,-3.000000
5.780651,-1.000000,0.000000,16395.000000,18.000000,-10.000000,0.000000
5.781426,7.000000,0.000000,16379.000000,-8.000000,4.000000,-3.000000
5.782046,9.000000,-11.000000,16396.000000,-4.000000,-1.000000,9.000000
5.782550,-3.000000,-9.000000,16385.000000,-19.000000,-7.000000,-17.000000
5.783680,2.000000,-12.000000,16384.000000,-7.000000,-15.000000,-13.000000
5.785007,2.000000,4.000000,16392.000000,-7.000000,8.000000,-14.000000
5.786612,1.000000,-1.000000,16387.000000,-11.000000,11.000000,-14.000000
5.787443,4.000000,9.000000,16385.000000,11.000000,-13.000000,5.000000
5.802781,3.000000,-1.000000,16388.000000,-15.000000,-11.000000,-15.000000
5.915735,7.000000,-4.000000,16412.000000,1.000000,1.000000,-26.000000
5.917399,-1.000000,-9.000000,16397.000000,29.000000,-5.000000,-9.000000
5.918173,2.000000,-1.000000,16390.000000,5.000000,28.000000,4.000000
5.918941,2.000000,0.000000,16398.000000,-2.000000,12.000000,7.000000
5.919635,3.000000,-6.000000,16397.000000,-23.000000,23.000000,-8.000000
5.920204,7.000000,-9.000000,16400.000000,-1.000000,-11.000000,-4.000000
5.920851,4.000000,-1.000000,16398.000000,-6.000000,-16.000000,-6.000000
5.921507,8.000000,-11.000000,16386.000000,2.000000,8.000000,-8.000000
5.922059,10.000000,-4.000000,16398.000000,-5.000000,-2.000000,-4.000000
5.922656,-15.000000,-3.000000,16388.000000,-9.000000,-7.000000,-4.000000
5.923327,-1.000000,-6.000000,16396.000000,-7.000000,1.000000,-10.000000
5.923869,1.000000,-2.000000,16393.000000,16.000000,-6.000000,12.000000
5.928559,-5.000000,2.000000,16398.000000,-1.000000,0.000000,-16.000000
5.944544,-10.000000,14.000000,16400.000000,-12.000000,4.000000,-1.000000
5.946764,7.000000,13.000000,16394.000000,-7.000000,-1.000000,-10.000000
6.074543,-2.000000,2.000000,16386.000000,-10.000000,-20.000000,2.000000
6.077074,6.000000,5.000000,16386.000000,1.000000,7.000000,18.000000
6.078041,12.000000,-3.000000,16398.000000,-1.000000,-5.000000,-8.000000
6.078809,0.000000,-6.000000,16411.000000,-14.000000,2.000000,-2.000000
6.079508,0.000000,-17.000000,16387.000000,11.000000,19.000000,2.000000
6.080251,0.000000,-4.000000,16413.000000,1.000000,18.000000,-15.000000
6.080905,0.000000,-10.000000,16401.000000,0.000000,1.000000,9.000000
6.081920,7.000000,-9.000000,16391.000000,26.000000,-12.000000,1.000000
6.083500,8.000000,-4.000000,16414.000000,-8.000000,1.000000,-4.000000
6.085998,-9.000000,11.000000,16402.000000,7.000000,1.000000,4.000000
6.087764,-5.000000,2.000000,16386.000000,1.000000,-7.000000,21.000000
6.089026,-3.000000,-18.000000,16378.000000,-17.000000,18.000000,13.000000
6.090399,-5.000000,-3.000000,16402.000000,-3.000000,2.000000,0.000000
6.091449,14.000000,-9.000000,16408.000000,-14.000000,-5.000000,-13.000000
6.102233,-7.000000,3.000000,16386.000000,-17.000000,-2.000000,-2.000000
6.196668,-3.000000,-2.000000,16386.000000,-3.000000,7.000000,-5.000000
6.198291,8.000000,-2.000000,16389.000000,6.000000,-29.000000,-29.000000
6.198816,0.000000,-7.000000,16393.000000,4.000000,-4.000000,-18.000000
6.199296,6.000000,-1.000000,16387.000000,10.000000,-12.000000,-7.000000
6.199775,-4.000000,16.000000,16410.000000,-10.000000,-2.000000,1.000000
6.200268,3.000000,3.000000,16392.000000,7.000000,-13.000000,-8.000000
6.200724,-1.000000,4.000000,16399.000000,-2.000000,15.000000,21.000000
6.201188,0.000000,-5.000000,16390.000000,36.000000,16.000000,4.000000
6.201626,2.000000,1.000000,16386.000000,2.000000,16.000000,-9.000000
6.202078,-3.000000,-1.000000,16413.000000,19.000000,16.000000,10.000000
6.209780,1.000000,-3.000000,16416.000000,-5.000000,-2.000000,29.000000
6.224525,-1.000000,4.000000,16385.000000,0.000000,-5.000000,25.000000
6.226142,-15.000000,1.000000,16379.000000,13.000000,-4.000000,31.000000
6.306417,-1.000000,-10.000000,16416.000000,6.000000,-2.000000,11.000000
6.307635,0.000000,-16.000000,16404.000000,-9.000000,24.000000,1.000000
6.308379,1.000000,-12.000000,16407.000000,7.000000,-24.000000,-4.000000
6.309006,0.000000,7.000000,16380.000000,-7.000000,-14.000000,-5.000000
6.309588,2.000000,-6.000000,16405.000000,5.000000,-9.000000,-12.000000
6.310130,1.000000,-4.000000,16382.000000,0.000000,-4.000000,-4.000000
6.310609,-7.000000,-7.000000,16384.000000,21.000000,-1.000000,1.000000
6.311142,-4.000000,-10.000000,16394.000000,10.000000,14.000000,-16.000000
6.320036,4.000000,-7.000000,16396.000000,19.000000,-1.000000,3.000000
6.335387,2.000000,-8.000000,16394.000000,0.000000,2.000000,-6.000000
6.336385,-2.000000,10.000000,16399.000000,-2.000000,11.000000,-8.000000
6.438794,-5.000000,9.000000,16405.000000,-7.000000,-4.000000,-11.000000
6.442506,5.000000,5.000000,16398.000000,-16.000000,-7.000000,-1.000000
6.444900,0.000000,4.000000,16382.000000,-13.000000,6.000000,-7.000000
6.446971,1.000000,2.000000,16379.000000,13.000000,5.000000,1.000000
6.448975,-1.000000,7.000000,16380.000000,3.000000,-13.000000,7.000000
6.451123,-3.000000,-4.000000,16394.000000,-2.000000,17.000000,-19.000000
6.453314,-6.000000,3.000000,16380.000000,-11.000000,17.000000,-25.000000
6.455375,7.000000,-3.000000,16398.000000,15.000000,-2.000000,5.000000
6.457563,19.000000,-10.000000,16395.000000,-4.000000,-17.000000,-14.000000
6.459645,12.000000,-13.000000,16387.000000,-9.000000,10.000000,1.000000
6.460425,-2.000000,2.000000,16382.000000,6.000000,3.000000,12.000000
6.461078,-1.000000,-10.000000,16399.000000,7.000000,17.000000,15.000000
6.579340,4.000000,-5.000000,16407.000000,19.000000,10.000000,8.000000
6.580795,-5.000000,6.000000,16383.000000,27.000000,-17.000000,6.000000
6.581575,5.000000,5.000000,16394.000000,-7.000000,-21.000000,-1.000000
6.582338,0.000000,1.000000,16411.000000,-5.000000,7.000000,10.000000
6.583143,6.000000,2.000000,16389.000000,-25.000000,-6.000000,-23.000000
6.584322,-2.000000,-4.000000,16401.000000,8.000000,16.000000,-4.000000
6.585201,-8.000000,5.000000,16398.000000,25.000000,-3.000000,9.000000
6.585908,-3.000000,2.000000,16386.000000,4.000000,-5.000000,-11.000000
6.586640,0.000000,-2.000000,16399.000000,-27.000000,5.000000,-11.000000
6.588344,2.000000,-10.000000,16397.000000,9.000000,-26.000000,-4.000000
6.590251,10.000000,0.000000,16391.000000,8.000000,-23.000000,7.000000
6.591642,1.000000,-3.000000,16413.000000,-27.000000,-1.000000,-15.000000
6.593846,1.000000,-10.000000,16395.000000,-20.000000,13.000000,-11.000000
6.600070,-2.000000,-4.000000,16393.000000,12.000000,-20.000000,3.000000
6.615886,-5.000000,-2.000000,16393.000000,14.000000,-5.000000,-23.000000
6.617348,3.000000,-5.000000,16407.000000,-4.000000,7.000000,-16.000000
6.712396,1.000000,-18.000000,16389.000000,-16.000000,-10.000000,-25.000000
6.713794,-2.000000,0.000000,16391.000000,-12.000000,-6.000000,-15.000000
6.714362,-1.000000,0.000000,16405.000000,1.000000,12.000000,-14.000000
6.714794,2.000000,-3.000000,16392.000000,-8.000000,3.000000,2.000000
6.715252,2.000000,-8.000000,16404.000000,-2.000000,5.000000,8.000000
6.715680,-2.000000,-7.000000,16407.000000,-17.000000,-10.000000,7.000000
6.716203,-7.000000,9.000000,16398.000000,3.000000,17.000000,1.000000
6.716654,4.000000,1.000000,16383.000000,-5.000000,-4.000000,-14.000000
6.717111,-1.000000,1.000000,16388.000000,-9.000000,16.000000,-22.000000
6.724658,-9.000000,-5.000000,16403.000000,-2.000000,12.000000,2.000000
6.726805,-9.000000,18.000000,16409.000000,25.000000,-11.000000,-23.000000
6.739510,1.000000,5.000000,16397.000000,12.000000,16.000000,-16.000000
6.847717,0.000000,-5.000000,16399.000000,9.000000,21.000000,9.000000
6.849246,4.000000,-7.000000,16400.000000,5.000000,9.000000,25.000000
6.850509,2.000000,8.000000,16386.000000,-21.000000,23.000000,-3.000000
6.852885,-6.000000,7.000000,16396.000000,-20.000000,-19.000000,-18.000000
6.855289,5.000000,-1.000000,16405.000000,-10.000000,-28.000000,-17.000000
6.857374,-1.000000,-7.000000,16397.000000,12.000000,-52.000000,-14.000000
6.859611,3.000000,-2.000000,16400.000000,-8.000000,-5.000000,0.000000
6.861807,-1.000000,1.000000,16393.000000,0.000000,6.000000,6.000000
6.864116,5.000000,-16.000000,16384.000000,-4.000000,-9.000000,4.000000
6.865799,2.000000,-19.000000,16403.000000,-2.000000,-5.000000,-7.000000
6.866681,-2.000000,-1.000000,16394.000000,4.000000,-4.000000,-8.000000
6.868523,-5.000000,1.000000,16400.000000,15.000000,-5.000000,-18.000000
6.879411,1.000000,6.000000,16378.000000,3.000000,-13.000000,-2.000000
6.881793,-5.000000,2.000000,16397.000000,-9.000000,-1.000000,4.000000
6.960377,-5.000000,5.000000,16409.000000,-7.000000,-9.000000,-15.000000
6.961894,2.000000,12.000000,16395.000000,12.000000,-24.000000,-1.000000
6.962615,5.000000,-6.000000,16380.000000,-28.000000,-3.000000,-13.000000
6.963239,4.000000,3.000000,16395.000000,-29.000000,-1.000000,-26.000000
6.963943,2.000000,-8.000000,16403.000000,-11.000000,-15.000000,-23.000000
6.964430,-2.000000,10.000000,16388.000000,-10.000000,0.000000,-18.000000
6.965024,0.000000,-1.000000,16386.000000,-21.000000,11.000000,-35.000000
6.965528,-3.000000,5.000000,16386.000000,-15.000000,-16.000000,1.000000
6.974080,13.000000,-10.000000,16392.000000,-24.000000,8.000000,5.000000
6.989263,0.000000,1.000000,16391.000000,25.000000,-29.000000,17.000000
6.991601,-6.000000,9.000000,16384.000000,12.000000,-12.000000,5.000000
7.105731,2.000000,5.000000,16392.000000,-5.000000,15.000000,15.000000
7.109817,-1.000000,-2.000000,16383.000000,10.000000,-1.000000,-1.000000
7.112352,1.000000,-1.000000,16395.000000,23.000000,-25.000000,-2.000000
7.114757,11.000000,0.000000,16398.000000,-8.000000,-8.000000,-5.000000
7.117076,-4.000000,13.000000,16388.000000,-17.000000,-14.000000,-15.000000
7.119351,-9.000000,1.000000,16390.000000,7.000000,7.000000,2.000000
7.121528,4.000000,-2.000000,16399.000000,10.000000,-11.000000,-3.000000
7.123685,-2.000000,-11.000000,16410.000000,4.000000,2.000000,-13.000000
7.125704,-3.000000,1.000000,16379.000000,25.000000,-6.000000,0.000000
7.128139,8.000000,-1.000000,16386.000000,-8.000000,32.000000,-4.000000
7.130449,15.000000,2.000000,16402.000000,3.000000,13.000000,-9.000000
7.132621,10.000000,2.000000,16397.000000,4.000000,8.000000,-15.000000
7.133990,0.000000,-5.000000,16409.000000,-10.000000,-9.000000,-13.000000
7.134975,5.000000,0.000000,16388.000000,-11.000000,9.000000,-9.000000
7.143594,0.000000,3.000000,16380.000000,21.000000,7.000000,7.000000
7.238592,1.000000,-3.000000,16398.000000,8.000000,-15.000000,6.000000
7.242440,-4.000000,0.000000,16394.000000,13.000000,-11.000000,-2.000000
7.244409,-4.000000,-6.000000,16370.000000,2.000000,-8.000000,0.000000
7.246463,12.000000,5.000000,16383.000000,10.000000,-20.000000,-6.000000
7.248571,-1.000000,-4.000000,16391.000000,-3.000000,-4.000000,-14.000000
7.250698,13.000000,7.000000,16390.000000,-4.000000,5.000000,2.000000
7.252954,-6.000000,-2.000000,16380.000000,4.000000,15.000000,26.000000
7.255061,3.000000,-6.000000,16378.000000,8.000000,6.000000,16.000000
7.257140,3.000000,-6.000000,16397.000000,30.000000,4.000000,6.000000
7.259596,7.000000,5.000000,16398.000000,18.000000,-8.000000,1.000000
7.262048,2.000000,-2.000000,16382.000000,7.000000,6.000000,10.000000
7.264150,-2.000000,-8.000000,16396.000000,12.000000,-13.000000,8.000000
7.270361,4.000000,-19.000000,16379.000000,-5.000000,17.000000,-8.000000
7.364807,-8.000000,-4.000000,16395.000000,5.000000,-1.000000,-1.000000
7.366023,-7.000000,2.000000,16388.000000,19.000000,14.000000,-15.000000
7.366600,-5.000000,-6.000000,16409.000000,30.000000,-11.000000,20.000000
7.367150,4.000000,-8.000000,16399.000000,8.000000,-7.000000,29.000000
7.367665,0.000000,1.000000,16387.000000,0.000000,-16.000000,-13.000000
7.368211,-7.000000,6.000000,16387.000000,-3.000000,-3.000000,-36.000000
7.368678,0.000000,-15.000000,16385.000000,8.000000,-12.000000,-25.000000
7.369181,1.000000,-19.000000,16378.000000,-21.000000,10.000000,-13.000000
7.369623,-4.000000,-6.000000,16398.000000,5.000000,-14.000000,-12.000000
7.377095,7.000000,-3.000000,16389.000000,14.000000,24.000000,-26.000000
7.379317,10.000000,-12.000000,16419.000000,5.000000,-10.000000,1.000000
7.392885,9.000000,0.000000,16393.000000,-6.000000,-5.000000,4.000000
7.481675,-6.000000,-2.000000,16396.000000,-1.000000,-3.000000,-6.000000
7.482947,-8.000000,4.000000,16389.000000,22.000000,-8.000000,13.000000
7.483668,-4.000000,-3.000000,16392.000000,22.000000,-6.000000,20.000000
7.484909,-1.000000,-2.000000,16389.000000,10.000000,-7.000000,4.000000
7.486383,-4.000000,5.000000,16384.000000,5.000000,11.000000,16.000000
7.488028,-3.000000,11.000000,16387.000000,-15.000000,0.000000,-8.000000
7.488750,1.000000,3.000000,16395.000000,12.000000,-19.000000,-3.000000
7.489299,5.000000,5.000000,16396.000000,4.000000,-11.000000,-12.000000
7.490071,2.000000,2.000000,16386.000000,3.000000,-1.000000,9.000000
7.490676,-7.000000,12.000000,16380.000000,-10.000000,6.000000,-20.000000
7.502652,11.000000,-1.000000,16393.000000,-9.000000,-20.000000,4.000000
7.518007,6.000000,1.000000,16390.000000,7.000000,-9.000000,-3.000000
7.519397,2.000000,0.000000,16391.000000,8.000000,-4.000000,-1.000000
7.596437,0.000000,-11.000000,16380.000000,-16.000000,11.000000,-4.000000
7.597820,1.000000,-4.000000,16384.000000,-16.000000,-13.000000,4.000000
7.598460,-4.000000,4.000000,16395.000000,-3.000000,-6.000000,-18.000000
7.598950,1.000000,-8.000000,16387.000000,19.000000,5.000000,0.000000
7.599478,1.000000,-11.000000,16391.000000,10.000000,4.000000,-7.000000
7.600186,-6.000000,0.000000,16380.000000,35.000000,-4.000000,11.000000
7.600753,-6.000000,-10.000000,16385.000000,11.000000,5.000000,-16.000000
7.601601,4.000000,-3.000000,16386.000000,29.000000,15.000000,21.000000
7.611512,-6.000000,-3.000000,16385.000000,9.000000,14.000000,3.000000
7.626791,0.000000,-4.000000,16387.000000,14.000000,-1.000000,12.000000
7.629654,6.000000,-9.000000,16382.000000,0.000000,15.000000,20.000000
7.724148,-4.000000,-2.000000,16397.000000,14.000000,18.000000,-3.000000
7.726296,13.000000,-8.000000,16401.000000,-11.000000,0.000000,-23.000000
7.728597,8.000000,3.000000,16402.000000,3.000000,-5.000000,16.000000
7.730511,2.000000,-4.000000,16392.000000,-6.000000,-1.000000,15.000000
7.731832,2.000000,-6.000000,16408.000000,-1.000000,-14.000000,12.000000
7.734492,0.000000,-8.000000,16405.000000,-5.000000,-1.000000,23.000000
7.737200,2.000000,0.000000,16376.000000,-8.000000,6.000000,12.000000
7.739680,-7.000000,10.000000,16382.000000,4.000000,-32.000000,5.000000
7.741985,2.000000,5.000000,16380.000000,4.000000,-13.000000,10.000000
7.744230,-1.000000,-2.000000,16390.000000,13.000000,9.000000,-9.000000
7.746524,-7.000000,5.000000,16386.000000,23.000000,-6.000000,9.000000
7.751687,0.000000,4.000000,16379.000000,-18.000000,3.000000,-8.000000
7.833635,6.000000,-13.000000,16385.000000,11.000000,10.000000,-3.000000
7.835194,-4.000000,6.000000,16380.000000,13.000000,-6.000000,-5.000000
7.835946,6.000000,-14.000000,16400.000000,5.000000,-10.000000,-16.000000
7.836503,9.000000,-15.000000,16397.000000,-16.000000,0.000000,-21.000000
7.837089,1.000000,-15.000000,16389.000000,-23.000000,5.000000,4.000000
7.837549,6.000000,-14.000000,16395.000000,5.000000,-18.000000,4.000000
7.838089,2.000000,-6.000000,16382.000000,2.000000,4.000000,4.000000
7.838714,3.000000,4.000000,16384.000000,-2.000000,5.000000,-8.000000
7.844355,-1.000000,-8.000000,16404.000000,-9.000000,-6.000000,0.000000
7.847183,-1.000000,2.000000,16395.000000,-20.000000,-9.000000,-3.000000
7.859297,5.000000,-14.000000,16390.000000,-30.000000,5.000000,-13.000000
7.961813,6.000000,-2.000000,16385.000000,-8.000000,-15.000000,-5.000000
7.963095,2.000000,2.000000,16390.000000,-2.000000,-22.000000,-12.000000
7.963700,0.000000,-2.000000,16393.000000,-13.000000,-7.000000,-13.000000
7.964150,-2.000000,-10.000000,16401.000000,6.000000,-17.000000,-34.000000
7.964790,6.000000,2.000000,16401.000000,-1.000000,-11.000000,-14.000000
7.965333,3.000000,-5.000000,16399.000000,-25.000000,15.000000,-17.000000
7.965985,2.000000,-4.000000,16386.000000,-6.000000,-10.000000,-12.000000
7.966568,-4.000000,0.000000,16381.000000,-11.000000,-7.000000,-8.000000
7.967223,1.000000,-22.000000,16368.000000,-5.000000,12.000000,-7.000000
7.967953,4.000000,-14.000000,16385.000000,-9.000000,20.000000,2.000000
7.971547,-3.000000,3.000000,16377.000000,10.000000,-1.000000,-6.000000
7.987057,-11.000000,7.000000,16377.000000,-2.000000,2.000000,-9.000000
7.989799,-237.000000,-1.000000,16379.000000,19.000000,-10.000000,-19.000000
8.095473,-13.000000,-2.000000,16381.000000,3.000000,-23.000000,-4.000000
8.096917,-14.000000,-4.000000,16382.000000,0.000000,-19.000000,0.000000
8.097451,-5.000000,-5.000000,16380.000000,39.000000,-2.000000,18.000000
8.097919,4.000000,9.000000,16380.000000,14.000000,4.000000,-18.000000
8.098332,4.000000,-2.000000,16390.000000,4.000000,-1.000000,-3.000000
8.098784,3.000000,1.000000,16373.000000,21.000000,-2.000000,1.000000
8.099228,-4.000000,4.000000,16384.000000,27.000000,-23.000000,-3.000000
8.099797,1.000000,-9.000000,16402.000000,-17.000000,0.000000,-11.000000
8.100255,4.000000,-5.000000,16395.000000,1.000000,1.000000,-17.000000
8.101356,0.000000,-5.000000,16392.000000,-14.000000,16.000000,-9.000000
8.102376,-4.000000,1.000000,16384.000000,10.000000,14.000000,-15.000000
8.112189,-4.000000,-7.000000,16387.000000,-10.000000,17.000000,-27.000000
8.127696,4.000000,-10.000000,16410.000000,-4.000000,-6.000000,-12.000000
8.128651,-2.000000,-6.000000,16415.000000,16.000000,-3.000000,-13.000000
8.226054,-7.000000,2.000000,16389.000000,28.000000,-18.000000,17.000000
8.227734,-13.000000,-11.000000,16380.000000,-6.000000,-6.000000,0.000000
8.230110,-2.000000,7.000000,16394.000000,3.000000,-17.000000,2.000000
8.232513,-2.000000,-9.000000,16417.000000,25.000000,-5.000000,-14.000000
8.235048,1.000000,4.000000,16381.000000,7.000000,-24.000000,2.000000
8.237350,3.000000,16.000000,16386.000000,3.000000,-16.000000,-4.000000
8.239042,7.000000,-8.000000,16388.000000,40.000000,-37.000000,3.000000
8.241176,1.000000,-7.000000,16404.000000,-17.000000,-8.000000,-13.000000
8.242112,9.000000,-12.000000,16395.000000,-31.000000,-15.000000,-10.000000
8.243364,6.000000,-15.000000,16405.000000,-2.000000,-29.000000,-14.000000
8.245290,-1.000000,-19.000000,16401.000000,-5.000000,-13.000000,6.000000
8.252575,4.000000,-19.000000,16385.000000,-18.000000,-23.000000,-3.000000
8.346244,4.000000,-5.000000,16398.000000,-21.000000,8.000000,8.000000
8.350001,-1.000000,8.000000,16380.000000,-6.000000,-5.000000,-1.000000
8.352622,-12.000000,-14.000000,16401.000000,11.000000,-16.000000,7.000000
8.354741,-10.000000,7.000000,16391.000000,-35.000000,9.000000,0.000000
8.357081,-10.000000,7.000000,16388.000000,-15.000000,-3.000000,-17.000000
8.359032,-8.000000,0.000000,16379.000000,-5.000000,-5.000000,-12.000000
8.360894,-1.000000,1.000000,16380.000000,11.000000,0.000000,-19.000000
8.361963,-3.000000,6.000000,16381.000000,-11.000000,12.000000,4.000000
8.362976,5.000000,-4.000000,16388.000000,-8.000000,-11.000000,-1.000000
8.363847,13.000000,0.000000,16389.000000,4.000000,-7.000000,7.000000
8.366695,15.000000,-2.000000,16393.000000,6.000000,-11.000000,-8.000000
8.375887,-3.000000,5.000000,16382.000000,1.000000,-17.000000,-9.000000
8.376919,-2.000000,12.000000,16409.000000,-8.000000,-14.000000,-4.000000
8.462165,-2.000000,-5.000000,16400.000000,-13.000000,6.000000,2.000000
8.464126,-1.000000,-13.000000,16425.000000,12.000000,-14.000000,21.000000
8.465484,-8.000000,4.000000,16382.000000,23.000000,-7.000000,6.000000
8.466750,-8.000000,-7.000000,16388.000000,20.000000,9.000000,1.000000
8.468552,-10.000000,-2.000000,16384.000000,3.000000,11.000000,-6.000000
8.470368,0.000000,-11.000000,16398.000000,-2.000000,-8.000000,-19.000000
8.471310,1.000000,6.000000,16384.000000,2.000000,8.000000,-20.000000
8.472330,-8.000000,6.000000,16393.000000,21.000000,-8.000000,-16.000000
8.473339,-3.000000,14.000000,16398.000000,-11.000000,-27.000000,-20.000000
8.485283,-10.000000,1.000000,16400.000000,-9.000000,-7.000000,-2.000000
8.486428,-8.000000,1.000000,16380.000000,10.000000,14.000000,-4.000000
8.601316,8.000000,-6.000000,16396.000000,8.000000,1.000000,-8.000000
8.605003,1.000000,8.000000,16396.000000,7.000000,5.000000,-13.000000
8.607208,6.000000,4.000000,16378.000000,-11.000000,23.000000,-8.000000
8.609181,4.000000,-4.000000,16382.000000,-27.000000,5.000000,-26.000000
8.611800,-7.000000,-2.000000,16369.000000,-27.000000,9.000000,-17.000000
8.613979,-2.000000,-11.000000,16385.000000,-22.000000,-22.000000,-11.000000
8.615847,-5.000000,2.000000,16385.000000,-13.000000,-5.000000,-16.000000
8.617931,-5.000000,3.000000,16374.000000,-23.000000,-10.000000,-29.000000
8.620371,-9.000000,11.000000,16377.000000,-25.000000,-1.000000,-1.000000
8.622722,-4.000000,-2.000000,16379.000000,-8.000000,-12.000000,-12.000000
8.625125,-1.000000,-3.000000,16392.000000,-7.000000,-1.000000,-12.000000
8.627845,7.000000,1.000000,16389.000000,-11.000000,9.000000,-31.000000
8.630405,-9.000000,1.000000,16388.000000,4.000000,7.000000,-16.000000
8.632886,-17.000000,-1.000000,16369.000000,16.000000,-20.000000,-19.000000
8.734761,-2.000000,15.000000,16373.000000,-5.000000,-1.000000,-21.000000
8.737943,4.000000,5.000000,16385.000000,7.000000,8.000000,-10.000000
8.739378,-3.000000,-4.000000,16387.000000,-24.000000,-10.000000,-23.000000
8.741307,0.000000,-4.000000,16387.000000,-9.000000,-10.000000,-21.000000
8.742654,-5.000000,1.000000,16384.000000,-23.000000,-20.000000,-20.000000
8.744409,-7.000000,4.000000,16396.000000,-12.000000,-5.000000,-8.000000
8.746187,-15.000000,-4.000000,16395.000000,4.000000,-31.000000,7.000000
8.749012,-8.000000,8.000000,16417.000000,10.000000,-14.000000,-6.000000
8.750623,-9.000000,3.000000,16404.000000,36.000000,-8.000000,3.000000
8.752292,-2.000000,-1.000000,16377.000000,10.000000,17.000000,4.000000
8.753739,-2.000000,-7.000000,16393.000000,-11.000000,22.000000,1.000000
8.755534,-3.000000,8.000000,16391.000000,15.000000,2.000000,-6.000000
8.763771,-7.000000,8.000000,16395.000000,5.000000,-17.000000,-3.000000
8.764945,6.000000,-2.000000,16402.000000,7.000000,-9.000000,-16.000000
8.849919,-3.000000,-6.000000,16383.000000,7.000000,-23.000000,-13.000000
8.851727,-12.000000,3.000000,16377.000000,-24.000000,-16.000000,-4.000000
8.852647,-4.000000,-8.000000,16399.000000,-3.000000,-4.000000,-7.000000
8.853846,-1.000000,-6.000000,16397.000000,-11.000000,3.000000,-7.000000
8.855203,3.000000,-5.000000,16395.000000,-12.000000,-10.000000,15.000000
8.855792,-6.000000,-6.000000,16387.000000,3.000000,26.000000,-10.000000
8.856369,-6.000000,1.000000,16375.000000,-4.000000,-8.000000,-17.000000
8.858423,-6.000000,-4.000000,16398.000000,6.000000,-20.000000,-19.000000
8.859382,5.000000,5.000000,16372.000000,8.000000,-22.000000,-4.000000
8.874207,-5.000000,-13.000000,16392.000000,-4.000000,6.000000,-5.000000
8.877431,1.000000,-13.000000,16388.000000,4.000000,-11.000000,-11.000000
8.890070,-4.000000,-5.000000,16392.000000,6.000000,10.000000,-13.000000
9.043359,-2.000000,-5.000000,16385.000000,4.000000,3.000000,-5.000000
9.046974,-4.000000,-11.000000,16394.000000,-6.000000,-2.000000,-4.000000
9.048689,-10.000000,-4.000000,16378.000000,-36.000000,-16.000000,-17.000000
9.050654,-5.000000,7.000000,16397.000000,-19.000000,15.000000,6.000000
9.052513,-10.000000,-1.000000,16389.000000,-11.000000,-3.000000,2.000000
9.054144,-7.000000,4.000000,16394.000000,9.000000,8.000000,-2.000000
9.055694,1.000000,-21.000000,16375.000000,15.000000,1.000000,10.000000
9.057433,2.000000,0.000000,16384.000000,0.000000,-18.000000,9.000000
9.059405,4.000000,-21.000000,16374.000000,16.000000,-32.000000,-15.000000
9.061502,-1.000000,-6.000000,16387.000000,-2.000000,-23.000000,-20.000000
9.062623,-8.000000,12.000000,16374.000000,24.000000,23.000000,3.000000
9.063608,-5.000000,2.000000,16380.000000,11.000000,-6.000000,-15.000000
9.064477,-8.000000,-12.000000,16385.000000,-17.000000,-13.000000,7.000000
9.064993,10.000000,3.000000,16406.000000,-43.000000,1.000000,-12.000000
9.065644,-7.000000,6.000000,16391.000000,-20.000000,-5.000000,-16.000000
9.066317,1.000000,-8.000000,16384.000000,-3.000000,1.000000,-11.000000
9.066887,0.000000,-4.000000,16395.000000,26.000000,-5.000000,16.000000
9.075759,1.000000,-4.000000,16395.000000,6.000000,-5.000000,6.000000
9.077025,1.000000,-6.000000,16392.000000,7.000000,16.000000,1.000000
9.176486,-16.000000,-2.000000,16405.000000,11.000000,11.000000,-21.000000
9.178104,9.000000,-5.000000,16404.000000,21.000000,-20.000000,3.000000
9.178785,3.000000,0.000000,16397.000000,32.000000,-4.000000,25.000000
9.179531,0.000000,0.000000,16384.000000,29.000000,0.000000,20.000000
9.180195,-11.000000,-2.000000,16397.000000,9.000000,3.000000,13.000000
9.180814,-5.000000,-8.000000,16390.000000,-6.000000,-18.000000,6.000000
9.181781,-7.000000,0.000000,16405.000000,0.000000,10.000000,-7.000000
9.182951,-4.000000,10.000000,16396.000000,14.000000,3.000000,5.000000
9.183933,-4.000000,8.000000,16393.000000,16.000000,-13.000000,23.000000
9.185602,-1.000000,1.000000,16394.000000,14.000000,-7.000000,10.000000
9.186729,-1.000000,-1.000000,16386.000000,-1.000000,-12.000000,-12.000000
9.202533,1.000000,2.000000,16387.000000,12.000000,6.000000,-7.000000
9.347371,-9.000000,-18.000000,16383.000000,-9.000000,-9.000000,-11.000000
9.348823,6.000000,0.000000,16379.000000,4.000000,-18.000000,3.000000
9.349488,11.000000,-3.000000,16391.000000,-11.000000,13.000000,2.000000
9.350155,5.000000,-4.000000,16392.000000,7.000000,12.000000,9.000000
9.350681,4.000000,-4.000000,16399.000000,8.000000,-8.000000,7.000000
9.351307,-6.000000,3.000000,16377.000000,22.000000,9.000000,10.000000
9.351899,2.000000,-3.000000,16383.000000,-19.000000,24.000000,1.000000
9.352421,1.000000,-6.000000,16387.000000,-16.000000,-2.000000,-13.000000
9.352973,-11.000000,7.000000,16384.000000,-8.000000,3.000000,17.000000
9.353482,-4.000000,-5.000000,16381.000000,21.000000,-8.000000,-3.000000
9.354025,-2.000000,-1.000000,16395.000000,-4.000000,-6.000000,-25.000000
9.354502,1.000000,-15.000000,16383.000000,-6.000000,3.000000,-5.000000
9.355069,-4.000000,0.000000,16381.000000,-11.000000,-13.000000,5.000000
9.355543,5.000000,-1.000000,16381.000000,-3.000000,-15.000000,-12.000000
9.357199,3.000000,3.000000,16389.000000,-6.000000,-19.000000,10.000000
9.358114,-9.000000,4.000000,16381.000000,4.000000,-10.000000,17.000000
9.373531,-3.000000,0.000000,16384.000000,10.000000,0.000000,10.000000
9.471634,-9.000000,4.000000,16375.000000,-12.000000,-12.000000,6.000000
9.473396,-3.000000,0.000000,16381.000000,-10.000000,-21.000000,1.000000
9.473964,1.000000,-2.000000,16394.000000,-12.000000,-5.000000,12.000000
9.474434,0.000000,-10.000000,16399.000000,-12.000000,15.000000,-2.000000
9.474925,-1.000000,-4.000000,16398.000000,2.000000,2.000000,2.000000
9.475408,-5.000000,3.000000,16386.000000,-11.000000,-1.000000,3.000000
9.475857,0.000000,-10.000000,16383.000000,-5.000000,-17.000000,-15.000000
9.476314,-7.000000,-3.000000,16399.000000,-14.000000,20.000000,-15.000000
9.476732,1.000000,-4.000000,16389.000000,-29.000000,5.000000,-4.000000
9.477280,-3.000000,-9.000000,16384.000000,0.000000,8.000000,-3.000000
9.483208,-2.000000,-2.000000,16392.000000,-2.000000,13.000000,-5.000000
9.497741,3.000000,-8.000000,16393.000000,-7.000000,-17.000000,-10.000000
9.498933,-12.000000,9.000000,16391.000000,4.000000,-27.000000,-15.000000
9.595188,-5.000000,0.000000,16396.000000,-11.000000,4.000000,-5.000000
9.596956,-3.000000,3.000000,16390.000000,2.000000,11.000000,-2.000000
9.597658,-9.000000,15.000000,16408.000000,-17.000000,27.000000,-7.000000
9.598411,-2.000000,1.000000,16389.000000,-5.000000,-3.000000,2.000000
9.599267,-2.000000,-4.000000,16392.000000,-7.000000,4.000000,-20.000000
9.600567,6.000000,-9.000000,16398.000000,21.000000,-10.000000,-5.000000
9.601498,-8.000000,2.000000,16378.000000,-18.000000,-2.000000,-14.000000
9.603007,-3.000000,-2.000000,16390.000000,5.000000,-12.000000,-6.000000
9.603614,9.000000,5.000000,16398.000000,-17.000000,6.000000,4.000000
9.606731,4.000000,6.000000,16383.000000,-20.000000,-6.000000,9.000000
9.607820,2.000000,0.000000,16396.000000,-26.000000,0.000000,10.000000
9.622048,-6.000000,3.000000,16385.000000,-3.000000,-5.000000,4.000000
9.726655,0.000000,-13.000000,16407.000000,21.000000,10.000000,-1.000000
9.730452,-4.000000,3.000000,16383.000000,-8.000000,6.000000,-13.000000
9.732651,-1.000000,-12.000000,16381.000000,-7.000000,16.000000,-4.000000
9.735498,2.000000,-1.000000,16377.000000,4.000000,-9.000000,-4.000000
9.736944,-3.000000,-10.000000,16392.000000,-19.000000,-17.000000,-6.000000
9.737971,1.000000,2.000000,16389.000000,16.000000,-5.000000,0.000000
9.738766,-5.000000,-2.000000,16395.000000,7.000000,12.000000,2.000000
9.739611,-10.000000,-14.000000,16379.000000,-23.000000,-14.000000,-8.000000
9.741691,11.000000,-8.000000,16399.000000,1.000000,-44.000000,9.000000
9.742578,-13.000000,2.000000,16382.000000,10.000000,4.000000,-2.000000
9.743587,-13.000000,1.000000,16383.000000,-20.000000,3.000000,0.000000
9.747594,4.000000,-16.000000,16387.000000,-9.000000,5.000000,7.000000
9.748914,-2.000000,5.000000,16382.000000,-11.000000,2.000000,-8.000000
9.762806,-11.000000,14.000000,16374.000000,16.000000,-12.000000,-10.000000
9.780339,1.000000,-4.000000,16375.000000,-6.000000,4.000000,-8.000000
9.782161,0.000000,-3.000000,16392.000000,13.000000,-18.000000,-6.000000
9.794775,5.000000,-6.000000,16388.000000,-16.000000,13.000000,-10.000000
9.811373,8.000000,4.000000,16397.000000,-18.000000,7.000000,12.000000
9.812561,-8.000000,-5.000000,16403.000000,-3.000000,-12.000000,-5.000000
9.826259,-8.000000,9.000000,16400.000000,2.000000,-6.000000,12.000000
9.827525,-7.000000,-2.000000,16403.000000,-21.000000,22.000000,-15.000000
9.840800,6.000000,-3.000000,16378.000000,1.000000,-22.000000,3.000000
9.856822,6.000000,4.000000,16381.000000,-3.000000,1.000000,9.000000
9.858322,-6.000000,-17.000000,16395.000000,18.000000,-7.000000,17.000000
9.873201,5.000000,-13.000000,16387.000000,3.000000,7.000000,12.000000
9.888157,4.000000,-11.000000,16393.000000,10.000000,2.000000,-1.000000
9.889385,-10.000000,-1.000000,16389.000000,9.000000,10.000000,-17.000000
9.904766,11.000000,4.000000,16401.000000,1.000000,6.000000,-16.000000
10.010603,3.000000,0.000000,16392.000000,-14.000000,-2.000000,-10.000000
10.014271,-7.000000,-1.000000,16402.000000,5.000000,-24.000000,20.000000
10.015290,-11.000000,-4.000000,16384.000000,0.000000,-1.000000,-15.000000
10.016268,17.000000,12.000000,16388.000000,-13.000000,-38.000000,-5.000000
10.017286,-3.000000,-3.000000,16395.000000,-7.000000,-17.000000,0.000000
10.018073,-1.000000,-2.000000,16402.000000,-19.000000,-3.000000,-14.000000
10.018845,-1.000000,-3.000000,16385.000000,-29.000000,-21.000000,-9.000000
10.019606,0.000000,0.000000,16388.000000,-18.000000,7.000000,9.000000
10.020281,0.000000,2.000000,16390.000000,-33.000000,0.000000,-6.000000
10.020942,-1.000000,-5.000000,16379.000000,-26.000000,4.000000,-14.000000
10.022050,2.000000,3.000000,16382.000000,0.000000,15.000000,0.000000
10.027929,-7.000000,2.000000,16378.000000,29.000000,-15.000000,5.000000
10.029594,2.000000,0.000000,16385.000000,-7.000000,23.000000,30.000000
10.042689,-2.000000,-1.000000,16388.000000,2.000000,-4.000000,-18.000000
10.133772,6.000000,-6.000000,16400.000000,1.000000,12.000000,-5.000000
10.138047,-3.000000,-20.000000,16377.000000,-12.000000,20.000000,-19.000000
10.139568,-6.000000,-10.000000,16381.000000,-15.000000,10.000000,1.000000
10.140634,4.000000,9.000000,16397.000000,-26.000000,2.000000,-13.000000
10.141448,-7.000000,4.000000,16388.000000,-18.000000,3.000000,-10.000000
10.142145,-6.000000,1.000000,16393.000000,-7.000000,-2.000000,-10.000000
10.142779,-6.000000,-7.000000,16385.000000,-2.000000,-29.000000,-14.000000
10.143428,6.000000,-5.000000,16383.000000,-21.000000,0.000000,-13.000000
10.144058,-4.000000,-9.000000,16381.000000,-16.000000,20.000000,-14.000000
10.144752,3.000000,-15.000000,16406.000000,0.000000,6.000000,3.000000
10.151234,6.000000,10.000000,16383.000000,-12.000000,-16.000000,14.000000
10.166567,0.000000,5.000000,16397.000000,7.000000,-6.000000,16.000000
10.168044,3.000000,-8.000000,16384.000000,9.000000,5.000000,16.000000
10.268215,7.000000,-13.000000,16378.000000,7.000000,-18.000000,14.000000
10.270836,2.000000,-3.000000,16411.000000,4.000000,-7.000000,1.000000
10.271550,-5.000000,-8.000000,16403.000000,-8.000000,-6.000000,17.000000
10.272180,-6.000000,-21.000000,16394.000000,7.000000,-6.000000,3.000000
10.272704,10.000000,-15.000000,16391.000000,0.000000,-11.000000,-15.000000
10.273179,5.000000,-2.000000,16388.000000,5.000000,0.000000,-8.000000
10.273730,-7.000000,2.000000,16369.000000,-17.000000,-15.000000,-11.000000
10.274252,5.000000,3.000000,16399.000000,-23.000000,3.000000,-4.000000
10.276537,4.000000,-9.000000,16399.000000,-20.000000,-6.000000,5.000000
10.278685,0.000000,7.000000,16399.000000,-8.000000,-3.000000,4.000000
10.280767,-6.000000,4.000000,16384.000000,-24.000000,-5.000000,5.000000
10.290660,1.000000,-7.000000,16403.000000,22.000000,-8.000000,-16.000000
10.306126,-6.000000,1.000000,16393.000000,-19.000000,3.000000,4.000000
10.307401,10.000000,-3.000000,16397.000000,-13.000000,-5.000000,-5.000000
10.387826,9.000000,-11.000000,16403.000000,10.000000,4.000000,-5.000000
10.391402,10.000000,-4.000000,16385.000000,-11.000000,0.000000,-23.000000
10.393525,-6.000000,-4.000000,16388.000000,-30.000000,6.000000,-8.000000
10.395866,-3.000000,4.000000,16385.000000,-14.000000,-14.000000,-9.000000
10.398083,-3.000000,6.000000,16389.000000,7.000000,1.000000,-12.000000
10.400753,1.000000,5.000000,16382.000000,-14.000000,13.000000,-14.000000
10.402962,-2.000000,-2.000000,16391.000000,29.000000,-11.000000,7.000000
10.405590,2.000000,-10.000000,16407.000000,-9.000000,3.000000,9.000000
10.407467,-11.000000,-3.000000,16401.000000,-13.000000,-4.000000,-3.000000
10.415070,-10.000000,15.000000,16391.000000,3.000000,-14.000000,-16.000000
10.416294,-7.000000,19.000000,16394.000000,-29.000000,-12.000000,-12.000000
10.511807,-8.000000,7.000000,16402.000000,-1.000000,-11.000000,-23.000000
10.514782,-7.000000,-4.000000,16388.000000,7.000000,-24.000000,-27.000000
10.517259,-11.000000,4.000000,16396.000000,-15.000000,-16.000000,-13.000000
10.519964,-4.000000,-9.000000,16391.000000,2.000000,-1.000000,2.000000
10.522817,-3.000000,-8.000000,16409.000000,4.000000,7.000000,-11.000000
10.525370,3.000000,-8.000000,16388.000000,0.000000,-9.000000,-2.000000
10.526616,10.000000,-13.000000,16396.000000,-27.000000,-13.000000,-7.000000
10.527380,6.000000,1.000000,16388.000000,8.000000,-8.000000,-8.000000
10.528123,4.000000,5.000000,16380.000000,-24.000000,2.000000,-19.000000
10.528815,2.000000,-6.000000,16405.000000,1.000000,-7.000000,0.000000
10.529363,-6.000000,-3.000000,16402.000000,-13.000000,36.000000,-16.000000
10.540485,-2.000000,0.000000,16400.000000,14.000000,-17.000000,-10.000000
10.622094,-12.000000,4.000000,16387.000000,2.000000,16.000000,-6.000000
10.624606,-6.000000,7.000000,16380.000000,26.000000,1.000000,3.000000
10.625368,-7.000000,-4.000000,16394.000000,-29.000000,-1.000000,-17.000000
10.626339,-6.000000,2.000000,16399.000000,-9.000000,0.000000,-9.000000
10.628168,-3.000000,3.000000,16377.000000,18.000000,-24.000000,9.000000
10.629842,0.000000,-10.000000,16386.000000,-3.000000,-11.000000,-4.000000
10.632574,-5.000000,-6.000000,16402.000000,-25.000000,-3.000000,-20.000000
10.635089,-2.000000,-11.000000,16387.000000,-11.000000,-15.000000,-18.000000
10.637190,4.000000,-17.000000,16382.000000,-2.000000,8.000000,2.000000
10.649311,-5.000000,-2.000000,16398.000000,-2.000000,-14.000000,-2.000000
10.652306,-7.000000,4.000000,16385.000000,-16.000000,-10.000000,10.000000
10.742269,-2.000000,1.000000,16373.000000,7.000000,-28.000000,-7.000000
10.745927,18.000000,5.000000,16395.000000,-6.000000,-11.000000,-7.000000
10.746965,-2.000000,-2.000000,16390.000000,11.000000,-31.000000,-33.000000
10.747943,7.000000,1.000000,16391.000000,-21.000000,0.000000,-11.000000
10.748874,3.000000,-8.000000,16408.000000,-4.000000,-3.000000,-17.000000
10.749834,2.000000,3.000000,16389.000000,12.000000,2.000000,0.000000
10.750757,1.000000,-1.000000,16389.000000,-3.000000,-12.000000,-2.000000
10.752011,-2.000000,5.000000,16386.000000,-19.000000,-6.000000,-16.000000
10.754419,-5.000000,0.000000,16403.000000,2.000000,-1.000000,5.000000
10.759058,3.000000,-2.000000,16402.000000,26.000000,-1.000000,11.000000
10.761294,1.000000,-2.000000,16401.000000,11.000000,7.000000,3.000000
10.773839,-4.000000,-6.000000,16393.000000,-16.000000,-6.000000,20.000000
10.775369,2.000000,7.000000,16393.000000,5.000000,17.000000,13.000000
10.892429,-3.000000,-11.000000,16420.000000,-21.000000,-19.000000,4.000000
10.895717,5.000000,8.000000,16393.000000,-13.000000,-11.000000,-22.000000
10.898017,4.000000,-13.000000,16399.000000,8.000000,10.000000,-13.000000
10.900014,6.000000,8.000000,16379.000000,22.000000,-9.000000,1.000000
10.901962,0.000000,6.000000,16387.000000,-18.000000,17.000000,-9.000000
10.904377,3.000000,-3.000000,16390.000000,-6.000000,-3.000000,9.000000
10.906259,4.000000,2.000000,16402.000000,-13.000000,-15.000000,-1.000000
10.907163,10.000000,6.000000,16387.000000,-14.000000,-17.000000,-23.000000
10.907799,3.000000,-16.000000,16386.000000,-16.000000,18.000000,-11.000000
10.908452,17.000000,-7.000000,16396.000000,-26.000000,-11.000000,-11.000000
10.909907,9.000000,2.000000,16397.000000,-26.000000,-15.000000,4.000000
10.910917,10.000000,-8.000000,16383.000000,13.000000,2.000000,-5.000000
10.913573,1.000000,-2.000000,16384.000000,-5.000000,-6.000000,0.000000
10.928434,5.000000,-15.000000,16379.000000,-30.000000,-9.000000,5.000000
10.998238,5.000000,-2.000000,16415.000000,-17.000000,13.000000,-11.000000
10.999638,0.000000,-16.000000,16407.000000,-29.000000,0.000000,-22.000000
11.000317,-12.000000,-8.000000,16380.000000,-11.000000,-9.000000,3.000000
11.000924,-15.000000,-2.000000,16398.000000,-1.000000,12.000000,13.000000
11.001952,3.000000,-1.000000,16384.000000,-10.000000,19.000000,5.000000
11.003327,1.000000,0.000000,16407.000000,-17.000000,8.000000,4.000000
11.003970,2.000000,0.000000,16403.000000,13.000000,-23.000000,9.000000
11.007284,3.000000,-1.000000,16398.000000,6.000000,-8.000000,8.000000
11.009360,4.000000,0.000000,16398.000000,-9.000000,5.000000,6.000000
11.022596,-3.000000,1.000000,16395.000000,-8.000000,-7.000000,3.000000
11.038505,-2.000000,-2.000000,16406.000000,-13.000000,5.000000,4.000000
11.039815,3.000000,0.000000,16407.000000,-22.000000,23.000000,-5.000000
11.114484,9.000000,-13.000000,16404.000000,-14.000000,14.000000,-24.000000
11.115667,0.000000,-10.000000,16381.000000,-13.000000,-9.000000,-20.000000
11.116229,4.000000,6.000000,16396.000000,-15.000000,-4.000000,1.000000
11.118250,6.000000,-8.000000,16396.000000,-2.000000,-4.000000,-8.000000
11.119256,-4.000000,5.000000,16396.000000,-24.000000,16.000000,-15.000000
11.121102,-5.000000,-4.000000,16404.000000,23.000000,-9.000000,8.000000
11.122977,-1.000000,7.000000,16391.000000,-19.000000,-15.000000,-1.000000
11.124783,1.000000,-12.000000,16401.000000,-28.000000,-4.000000,8.000000
11.133714,2.000000,-1.000000,16398.000000,-13.000000,26.000000,-12.000000
11.151715,-2.000000,-6.000000,16414.000000,32.000000,-10.000000,-1.000000
11.154196,0.000000,-12.000000,16398.000000,2.000000,2.000000,0.000000
11.235366,-1.000000,-2.000000,16403.000000,17.000000,-22.000000,6.000000
11.237873,1.000000,-8.000000,16417.000000,6.000000,-11.000000,2.000000
11.239041,-8.000000,2.000000,16390.000000,1.000000,-2.000000,6.000000
11.240135,11.000000,-3.000000,16408.000000,-6.000000,-2.000000,7.000000
11.241115,3.000000,-9.000000,16396.000000,19.000000,-4.000000,17.000000
11.242069,2.000000,-3.000000,16407.000000,-8.000000,8.000000,2.000000
11.243390,-3.000000,-2.000000,16396.000000,23.000000,-21.000000,-2.000000
11.244241,-4.000000,-8.000000,16390.000000,4.000000,-12.000000,4.000000
11.245224,-1.000000,-1.000000,16403.000000,-9.000000,-9.000000,-10.000000
11.259035,-5.000000,-7.000000,16385.000000,-6.000000,1.000000,-4.000000
11.260514,-3.000000,11.000000,16403.000000,-6.000000,-16.000000,-1.000000
11.349178,-1.000000,6.000000,16410.000000,11.000000,-10.000000,4.000000
11.350679,-3.000000,3.000000,16391.000000,9.000000,14.000000,24.000000
11.351447,1.000000,-5.000000,16392.000000,25.000000,7.000000,8.000000
11.352185,-1.000000,1.000000,16384.000000,19.000000,-2.000000,7.000000
11.353591,-6.000000,-2.000000,16386.000000,7.000000,-11.000000,7.000000
11.354793,-8.000000,6.000000,16387.000000,6.000000,16.000000,-24.000000
11.355800,6.000000,-16.000000,16410.000000,-15.000000,9.000000,-20.000000
11.356651,8.000000,-27.000000,16384.000000,17.000000,-23.000000,-1.000000
11.357517,-10.000000,11.000000,16388.000000,-1.000000,-4.000000,-9.000000
11.368028,1.000000,-15.000000,16403.000000,15.000000,13.000000,7.000000
11.370283,-6.000000,4.000000,16385.000000,3.000000,-2.000000,-8.000000
11.383124,2.000000,-10.000000,16408.000000,-3.000000,17.000000,12.000000
11.467637,1.000000,-6.000000,16422.000000,9.000000,-1.000000,-3.000000
11.469296,-9.000000,11.000000,16419.000000,14.000000,-11.000000,10.000000
11.470051,8.000000,-9.000000,16400.000000,-9.000000,3.000000,-10.000000
11.470567,4.000000,-6.000000,16397.000000,-15.000000,13.000000,-4.000000
11.471107,15.000000,-7.000000,16401.000000,-12.000000,-17.000000,-11.000000
11.472062,11.000000,-5.000000,16411.000000,6.000000,-8.000000,-9.000000
11.474023,-8.000000,-10.000000,16404.000000,-19.000000,-1.000000,9.000000
11.476071,-1.000000,-5.000000,16391.000000,12.000000,-18.000000,0.000000
11.478322,3.000000,5.000000,16398.000000,-21.000000,22.000000,-14.000000
11.480132,-8.000000,16.000000,16413.000000,-1.000000,2.000000,-12.000000
11.492524,3.000000,6.000000,16397.000000,6.000000,-21.000000,12.000000
11.507655,-4.000000,-2.000000,16392.000000,5.000000,-12.000000,-7.000000
11.589161,-8.000000,3.000000,16392.000000,3.000000,25.000000,-18.000000
11.593011,-6.000000,-6.000000,16402.000000,22.000000,-3.000000,-6.000000
11.595099,-3.000000,-11.000000,16416.000000,-5.000000,5.000000,4.000000
11.597028,-2.000000,12.000000,16395.000000,-19.000000,-7.000000,-7.000000
11.598745,0.000000,-1.000000,16399.000000,-4.000000,7.000000,5.000000
11.600618,1.000000,-11.000000,16392.000000,0.000000,-10.000000,1.000000
11.602423,10.000000,3.000000,16393.000000,3.000000,13.000000,9.000000
11.603417,-11.000000,5.000000,16400.000000,1.000000,-7.000000,12.000000
11.605383,3.000000,0.000000,16386.000000,-20.000000,9.000000,-3.000000
11.608003,-5.000000,-4.000000,16399.000000,20.000000,-20.000000,0.000000
11.617118,8.000000,-3.000000,16412.000000,-11.000000,1.000000,2.000000
11.618637,5.000000,-1.000000,16375.000000,6.000000,-9.000000,2.000000
11.709677,6.000000,8.000000,16407.000000,-24.000000,6.000000,-2.000000
11.712098,-1.000000,4.000000,16389.000000,-8.000000,18.000000,3.000000
11.713036,-4.000000,1.000000,16407.000000,-17.000000,-25.000000,-12.000000
11.713998,-8.000000,1.000000,16396.000000,-9.000000,-10.000000,0.000000
11.714925,2.000000,8.000000,16390.000000,16.000000,20.000000,-11.000000
11.715651,10.000000,8.000000,16406.000000,15.000000,-1.000000,-4.000000
11.717426,-6.000000,6.000000,16383.000000,20.000000,-1.000000,-2.000000
11.719723,-4.000000,17.000000,16396.000000,-9.000000,3.000000,0.000000
11.721798,9.000000,-1.000000,16397.000000,-4.000000,-7.000000,10.000000
11.726406,3.000000,-7.000000,16417.000000,0.000000,-11.000000,14.000000
11.727325,4.000000,2.000000,16397.000000,-8.000000,-16.000000,-8.000000
11.741744,6.000000,-13.000000,16387.000000,0.000000,1.000000,-7.000000
11.828993,-4.000000,-4.000000,16396.000000,-19.000000,8.000000,-3.000000
11.832148,2.000000,-5.000000,16420.000000,-8.000000,14.000000,-9.000000
11.834457,4.000000,1.000000,16407.000000,16.000000,5.000000,-7.000000
11.836405,6.000000,-10.000000,16400.000000,2.000000,5.000000,-6.000000
11.838309,4.000000,5.000000,16375.000000,-16.000000,17.000000,9.000000
11.840353,-12.000000,-3.000000,16399.000000,16.000000,19.000000,7.000000
11.842833,2.000000,-4.000000,16391.000000,1.000000,-8.000000,-4.000000
11.844471,-5.000000,0.000000,16393.000000,-4.000000,-9.000000,-19.000000
11.845680,1.000000,-1.000000,16391.000000,-16.000000,11.000000,-21.000000
11.846530,-5.000000,-9.000000,16412.000000,9.000000,20.000000,12.000000
11.849891,-4.000000,3.000000,16389.000000,5.000000,21.000000,3.000000
11.865128,-5.000000,2.000000,16392.000000,7.000000,-5.000000,-19.000000
11.961171,-4.000000,-9.000000,16410.000000,-3.000000,21.000000,-11.000000
11.965177,-1.000000,-11.000000,16418.000000,20.000000,-9.000000,10.000000
11.967558,-5.000000,13.000000,16378.000000,3.000000,-8.000000,5.000000
11.969452,-6.000000,10.000000,16390.000000,-4.000000,-3.000000,4.000000
11.972251,1.000000,10.000000,16391.000000,5.000000,2.000000,10.000000
11.974870,2.000000,1.000000,16406.000000,8.000000,5.000000,14.000000
11.977378,2.000000,1.000000,16406.000000,-8.000000,5.000000,1.000000
11.979668,4.000000,-6.000000,16399.000000,-20.000000,-2.000000,11.000000
11.981845,-12.000000,11.000000,16389.000000,-25.000000,-1.000000,15.000000
11.982851,-10.000000,5.000000,16407.000000,15.000000,-4.000000,10.000000
11.984439,-6.000000,-7.000000,16391.000000,-12.000000,-9.000000,2.000000
11.985481,4.000000,-5.000000,16405.000000,8.000000,-10.000000,-15.000000
11.992074,-1.000000,-11.000000,16411.000000,-35.000000,5.000000,-16.000000
12.088251,2.000000,-3.000000,16392.000000,26.000000,-21.000000,14.000000
12.091473,3.000000,-3.000000,16414.000000,17.000000,8.000000,7.000000
12.092823,4.000000,-6.000000,16394.000000,7.000000,-9.000000,9.000000
12.093708,3.000000,1.000000,16390.000000,-22.000000,-17.000000,4.000000
12.094306,-2.000000,2.000000,16386.000000,-4.000000,-1.000000,6.000000
12.094937,-1.000000,1.000000,16381.000000,-21.000000,4.000000,-7.000000
12.095410,-6.000000,8.000000,16389.000000,8.000000,-14.000000,-13.000000
12.096003,-3.000000,1.000000,16373.000000,-7.000000,3.000000,-13.000000
12.096536,5.000000,-8.000000,16391.000000,7.000000,0.000000,3.000000
12.097057,5.000000,-3.000000,16393.000000,-10.000000,20.000000,-2.000000
12.102658,-4.000000,-6.000000,16384.000000,2.000000,18.000000,14.000000
12.118094,-3.000000,7.000000,16378.000000,-7.000000,10.000000,9.000000
12.119305,-7.000000,8.000000,16398.000000,2.000000,29.000000,-4.000000
12.209082,-6.000000,9.000000,16401.000000,-23.000000,17.000000,-19.000000
12.212413,-7.000000,-12.000000,16376.000000,-5.000000,-4.000000,-1.000000
12.214426,4.000000,-16.000000,16384.000000,-4.000000,11.000000,-13.000000
12.216348,-3.000000,6.000000,16398.000000,16.000000,-3.000000,-9.000000
12.218801,6.000000,-7.000000,16385.000000,16.000000,-14.000000,-16.000000
12.220604,-2.000000,11.000000,16378.000000,-28.000000,-4.000000,-2.000000
12.222620,7.000000,1.000000,16397.000000,-17.000000,1.000000,-6.000000
12.223495,0.000000,-5.000000,16391.000000,3.000000,9.000000,-16.000000
12.224235,-12.000000,3.000000,16382.000000,0.000000,-13.000000,-24.000000
12.226276,-1.000000,-1.000000,16384.000000,17.000000,-15.000000,3.000000
12.226930,0.000000,-3.000000,16382.000000,20.000000,12.000000,-2.000000
12.242896,-4.000000,-1.000000,16381.000000,-6.000000,14.000000,10.000000
12.328043,7.000000,-6.000000,16393.000000,-10.000000,-10.000000,-12.000000
12.330962,5.000000,-11.000000,16392.000000,-8.000000,-10.000000,-11.000000
12.332905,11.000000,3.000000,16402.000000,-1.000000,9.000000,5.000000
12.334985,0.000000,4.000000,16379.000000,13.000000,-18.000000,0.000000
12.337109,0.000000,-1.000000,16382.000000,-8.000000,0.000000,-7.000000
12.338792,1.000000,-9.000000,16396.000000,-13.000000,-13.000000,-7.000000
12.339633,-1.000000,0.000000,16403.000000,1.000000,-13.000000,-8.000000
12.340407,4.000000,-2.000000,16397.000000,7.000000,-13.000000,-3.000000
12.341654,-5.000000,-1.000000,16381.000000,10.000000,-1.000000,0.000000
12.343978,-8.000000,8.000000,16382.000000,-2.000000,-34.000000,-4.000000
12.350508,-3.000000,0.000000,16402.000000,-12.000000,-17.000000,-13.000000
12.445433,-5.000000,1.000000,16375.000000,-16.000000,6.000000,0.000000
12.447197,6.000000,-1.000000,16395.000000,17.000000,-10.000000,-3.000000
12.448021,17.000000,-7.000000,16403.000000,9.000000,-1.000000,-1.000000
12.448717,1.000000,3.000000,16384.000000,-11.000000,-7.000000,-10.000000
12.449373,5.000000,14.000000,16382.000000,-11.000000,-2.000000,1.000000
12.451564,5.000000,-5.000000,16389.000000,-2.000000,-8.000000,19.000000
12.452882,-4.000000,-12.000000,16379.000000,3.000000,0.000000,9.000000
12.453625,-4.000000,-7.000000,16406.000000,-17.000000,8.000000,-3.000000
12.454308,-3.000000,0.000000,16385.000000,8.000000,-1.000000,-3.000000
12.454862,4.000000,-3.000000,16398.000000,11.000000,-8.000000,-12.000000
12.459705,0.000000,1.000000,16399.000000,-16.000000,2.000000,-1.000000
12.475000,-3.000000,0.000000,16379.000000,19.000000,5.000000,-14.000000
12.476157,-12.000000,4.000000,16390.000000,16.000000,-39.000000,-6.000000
12.559266,-9.000000,-5.000000,16381.000000,8.000000,-30.000000,2.000000
12.563521,-3.000000,6.000000,16389.000000,8.000000,-1.000000,3.000000
12.565787,6.000000,-5.000000,16389.000000,-8.000000,16.000000,-14.000000
12.568171,-6.000000,-4.000000,16396.000000,1.000000,12.000000,-4.000000
12.570320,6.000000,-15.000000,16406.000000,0.000000,-5.000000,2.000000
12.571502,5.000000,-8.000000,16406.000000,5.000000,33.000000,12.000000
12.572415,2.000000,-2.000000,16383.000000,12.000000,-9.000000,-5.000000
12.573213,-3.000000,2.000000,16399.000000,40.000000,8.000000,4.000000
12.573874,-2.000000,-4.000000,16396.000000,16.000000,-1.000000,-2.000000
12.584931,-1.000000,4.000000,16381.000000,3.000000,-12.000000,9.000000
12.585934,2.000000,-9.000000,16379.000000,-28.000000,-9.000000,-15.000000
12.677239,4.000000,0.000000,16384.000000,8.000000,17.000000,-21.000000
12.678863,-3.000000,1.000000,16385.000000,9.000000,4.000000,4.000000
12.680010,-2.000000,7.000000,16390.000000,-3.000000,-23.000000,7.000000
12.682055,-5.000000,-2.000000,16389.000000,-12.000000,-9.000000,-4.000000
12.684129,1.000000,-4.000000,16384.000000,-6.000000,12.000000,11.000000
12.685293,-1.000000,1.000000,16382.000000,0.000000,10.000000,-1.000000
12.686137,-2.000000,1.000000,16394.000000,33.000000,4.000000,4.000000
12.686788,3.000000,3.000000,16371.000000,4.000000,3.000000,0.000000
12.687271,-3.000000,3.000000,16384.000000,-19.000000,22.000000,-6.000000
12.693041,-5.000000,5.000000,16396.000000,-38.000000,15.000000,-20.000000
12.708298,-1.000000,0.000000,16406.000000,-3.000000,-12.000000,-7.000000
12.709601,-1.000000,-5.000000,16390.000000,-2.000000,8.000000,-9.000000
12.792164,-3.000000,6.000000,16390.000000,-23.000000,-14.000000,2.000000
12.793925,-3.000000,19.000000,16386.000000,-11.000000,21.000000,11.000000
12.794464,-1.000000,8.000000,16389.000000,-4.000000,-8.000000,18.000000
12.795011,2.000000,-4.000000,16397.000000,-10.000000,-11.000000,6.000000
12.795602,-1.000000,-4.000000,16399.000000,5.000000,14.000000,11.000000
12.796094,5.000000,-6.000000,16390.000000,-10.000000,-4.000000,-8.000000
12.797700,-1.000000,0.000000,16388.000000,-13.000000,5.000000,-16.000000
12.799341,12.000000,-12.000000,16414.000000,-25.000000,8.000000,-17.000000
12.801960,17.000000,-6.000000,16400.000000,-1.000000,-2.000000,-9.000000
12.816742,9.000000,0.000000,16385.000000,-6.000000,11.000000,5.000000
12.817975,-3.000000,-9.000000,16389.000000,16.000000,-1.000000,0.000000
12.922659,-1.000000,-9.000000,16390.000000,10.000000,7.000000,-5.000000
12.926711,-8.000000,-3.000000,16394.000000,7.000000,-9.000000,2.000000
12.928548,-3.000000,-4.000000,16402.000000,-6.000000,4.000000,6.000000
12.930229,-5.000000,6.000000,16391.000000,-2.000000,-2.000000,-12.000000
12.931304,-5.000000,5.000000,16372.000000,2.000000,-22.000000,0.000000
12.932378,6.000000,7.000000,16387.000000,-8.000000,14.000000,0.000000
12.934057,-6.000000,-6.000000,16383.000000,3.000000,11.000000,-12.000000
12.936003,-9.000000,5.000000,16406.000000,-9.000000,-5.000000,-13.000000
12.938359,5.000000,-1.000000,16392.000000,3.000000,-35.000000,-3.000000
12.939470,-3.000000,0.000000,16382.000000,8.000000,-9.000000,-4.000000
12.940546,6.000000,-6.000000,16403.000000,7.000000,0.000000,4.000000
12.941211,2.000000,5.000000,16385.000000,10.000000,-12.000000,8.000000
12.956084,0.000000,-2.000000,16401.000000,-15.000000,18.000000,6.000000
12.957243,0.000000,1.000000,16381.000000,-2.000000,-10.000000,-15.000000
13.047588,14.000000,1.000000,16390.000000,-5.000000,-6.000000,-25.000000
13.049938,3.000000,-19.000000,16377.000000,15.000000,9.000000,-13.000000
13.051589,-9.000000,11.000000,16382.000000,-8.000000,-7.000000,6.000000
13.053150,1.000000,6.000000,16389.000000,29.000000,-11.000000,16.000000
13.054038,4.000000,9.000000,16381.000000,8.000000,-2.000000,-8.000000
13.054711,17.000000,2.000000,16380.000000,-1.000000,-7.000000,3.000000
13.055677,0.000000,-3.000000,16392.000000,1.000000,-8.000000,5.000000
13.057405,-6.000000,-2.000000,16378.000000,11.000000,12.000000,28.000000
13.059179,-3.000000,-5.000000,16384.000000,-22.000000,12.000000,-7.000000
13.065284,9.000000,-24.000000,16385.000000,-11.000000,-7.000000,-1.000000
13.066547,3.000000,-8.000000,16388.000000,-8.000000,-14.000000,-17.000000
13.080167,-5.000000,-2.000000,16401.000000,8.000000,-23.000000,-23.000000
13.153145,-5.000000,0.000000,16384.000000,-25.000000,9.000000,1.000000
13.156189,8.000000,-1.000000,16379.000000,-6.000000,-5.000000,8.000000
13.157983,-3.000000,-6.000000,16387.000000,-4.000000,-6.000000,-4.000000
13.159017,-1.000000,-1.000000,16377.000000,11.000000,-5.000000,-9.000000
13.159714,0.000000,-3.000000,16376.000000,25.000000,-1.000000,12.000000
13.160280,5.000000,0.000000,16395.000000,22.000000,-8.000000,-10.000000
13.160986,-5.000000,-2.000000,16386.000000,-12.000000,7.000000,-16.000000
13.161896,-5.000000,6.000000,16380.000000,-11.000000,-18.000000,-10.000000
13.174399,2.000000,4.000000,16370.000000,6.000000,-10.000000,-3.000000
13.176107,7.000000,-12.000000,16387.000000,2.000000,-7.000000,23.000000
13.191120,-8.000000,-6.000000,16375.000000,-9.000000,22.000000,14.000000
13.273067,0.000000,-5.000000,16389.000000,-7.000000,8.000000,0.000000
13.275316,2.000000,6.000000,16383.000000,14.000000,8.000000,-10.000000
13.276102,-5.000000,5.000000,16391.000000,-4.000000,13.000000,-16.000000
13.276710,-3.000000,9.000000,16383.000000,-19.000000,-2.000000,-4.000000
13.277208,-4.000000,-22.000000,16380.000000,-19.000000,-5.000000,3.000000
13.277814,-1.000000,-3.000000,16389.000000,-4.000000,-22.000000,-8.000000
13.278294,0.000000,-4.000000,16392.000000,-15.000000,2.000000,-10.000000
13.278887,-5.000000,9.000000,16397.000000,15.000000,11.000000,-1.000000
13.285013,-5.000000,0.000000,16378.000000,32.000000,2.000000,13.000000
13.287411,-12.000000,-3.000000,16378.000000,-5.000000,14.000000,6.000000
13.300329,0.000000,-4.000000,16392.000000,-6.000000,-14.000000,-11.000000
13.389642,4.000000,3.000000,16381.000000,-20.000000,-37.000000,1.000000
13.392457,2.000000,-12.000000,16399.000000,19.000000,-5.000000,10.000000
13.394184,0.000000,2.000000,16379.000000,16.000000,-5.000000,7.000000
13.395810,3.000000,0.000000,16384.000000,17.000000,-12.000000,12.000000
13.396433,9.000000,-8.000000,16387.000000,14.000000,-10.000000,-2.000000
13.396899,-11.000000,-5.000000,16390.000000,14.000000,-19.000000,-7.000000
13.397448,-7.000000,2.000000,16389.000000,23.000000,8.000000,4.000000
13.398067,2.000000,1.000000,16386.000000,15.000000,-3.000000,8.000000
13.398817,-12.000000,9.000000,16399.000000,10.000000,13.000000,-3.000000
13.400308,2.000000,-1.000000,16386.000000,-3.000000,-1.000000,-15.000000
13.411604,-2.000000,-1.000000,16392.000000,-4.000000,-8.000000,-8.000000
13.426361,-1.000000,-5.000000,16387.000000,-11.000000,-18.000000,-15.000000
13.427370,-2.000000,0.000000,16390.000000,-13.000000,-10.000000,-32.000000
13.499181,-1.000000,-7.000000,16389.000000,-10.000000,10.000000,-30.000000
13.500564,-13.000000,-8.000000,16383.000000,-21.000000,15.000000,-22.000000
13.501506,8.000000,-8.000000,16394.000000,-9.000000,6.000000,-5.000000
13.502260,-4.000000,-4.000000,16405.000000,1.000000,-9.000000,5.000000
13.503038,11.000000,-4.000000,16392.000000,23.000000,-14.000000,-5.000000
13.503545,5.000000,6.000000,16383.000000,12.000000,-2.000000,-2.000000
13.505282,-3.000000,0.000000,16386.000000,15.000000,-9.000000,9.000000
13.506967,0.000000,-12.000000,16376.000000,10.000000,-7.000000,-2.000000
13.522539,4.000000,-5.000000,16398.000000,-1.000000,9.000000,-3.000000
13.536603,6.000000,-5.000000,16411.000000,8.000000,-24.000000,-20.000000
13.537790,2.000000,4.000000,16390.000000,21.000000,-18.000000,-6.000000
13.610606,-4.000000,2.000000,16382.000000,-2.000000,-8.000000,-6.000000
13.612248,-3.000000,-3.000000,16391.000000,7.000000,-7.000000,5.000000
13.612969,1.000000,-11.000000,16393.000000,-4.000000,4.000000,-3.000000
13.613557,10.000000,-11.000000,16385.000000,-5.000000,6.000000,-5.000000
13.614094,5.000000,1.000000,16394.000000,-26.000000,14.000000,5.000000
13.615718,17.000000,-8.000000,16393.000000,10.000000,-12.000000,19.000000
13.617838,3.000000,2.000000,16381.000000,5.000000,11.000000,7.000000
13.619708,5.000000,-8.000000,16385.000000,-12.000000,-12.000000,-4.000000
13.630865,8.000000,4.000000,16395.000000,0.000000,0.000000,0.000000
13.646865,6.000000,-4.000000,16383.000000,28.000000,-3.000000,4.000000
13.647936,-5.000000,-2.000000,16392.000000,-4.000000,-5.000000,9.000000
13.717783,0.000000,-6.000000,16401.000000,14.000000,4.000000,32.000000
13.719684,-3.000000,-7.000000,16376.000000,2.000000,8.000000,4.000000
13.721202,6.000000,-9.000000,16391.000000,4.000000,-7.000000,7.000000
13.722722,-3.000000,3.000000,16384.000000,-1.000000,-9.000000,7.000000
13.723941,-3.000000,7.000000,16385.000000,8.000000,10.000000,2.000000
13.724878,-9.000000,-6.000000,16383.000000,-14.000000,13.000000,-4.000000
13.725621,-2.000000,-5.000000,16380.000000,11.000000,-17.000000,-19.000000
13.726272,-8.000000,0.000000,16388.000000,-17.000000,-11.000000,-4.000000
13.740483,-5.000000,-1.000000,16402.000000,-6.000000,-5.000000,-10.000000
13.755230,-1.000000,-12.000000,16414.000000,12.000000,7.000000,8.000000
13.756475,3.000000,-7.000000,16393.000000,24.000000,36.000000,23.000000
13.830980,-2.000000,-23.000000,16381.000000,11.000000,7.000000,0.000000
13.832751,4.000000,1.000000,16381.000000,4.000000,-19.000000,15.000000
13.835026,-2.000000,16.000000,16398.000000,-22.000000,-3.000000,24.000000
13.837020,2.000000,2.000000,16400.000000,-1.000000,1.000000,15.000000
13.838367,2.000000,-1.000000,16392.000000,-7.000000,-6.000000,11.000000
13.839576,-11.000000,7.000000,16389.000000,-5.000000,-19.000000,10.000000
13.840215,5.000000,5.000000,16366.000000,-18.000000,13.000000,18.000000
13.841243,4.000000,-2.000000,16394.000000,3.000000,-5.000000,10.000000
13.850026,-4.000000,10.000000,16383.000000,-40.000000,9.000000,-1.000000
13.865250,4.000000,-9.000000,16407.000000,-3.000000,-1.000000,4.000000
13.867645,4.000000,11.000000,16376.000000,-16.000000,-8.000000,-8.000000
13.945113,0.000000,-3.000000,16408.000000,0.000000,3.000000,9.000000
13.946795,5.000000,-8.000000,16389.000000,12.000000,10.000000,7.000000
13.947881,0.000000,-3.000000,16401.000000,20.000000,-18.000000,8.000000
13.948623,4.000000,-7.000000,16389.000000,-6.000000,-7.000000,2.000000
13.949155,-4.000000,0.000000,16389.000000,12.000000,-1.000000,9.000000
13.949702,-4.000000,-8.000000,16391.000000,15.000000,3.000000,-8.000000
13.950157,-2.000000,-7.000000,16390.000000,2.000000,0.000000,-10.000000
13.959747,0.000000,-7.000000,16408.000000,12.000000,7.000000,-24.000000
13.961321,11.000000,5.000000,16385.000000,-14.000000,10.000000,-12.000000
13.974395,2.000000,-4.000000,16383.000000,-14.000000,-14.000000,3.000000
13.975645,3.000000,12.000000,16384.000000,-24.000000,-6.000000,-15.000000
13.990185,6.000000,-1.000000,16405.000000,1.000000,8.000000,-19.000000
14.060010,-1.000000,-6.000000,16409.000000,2.000000,-7.000000,-5.000000
14.061526,-11.000000,-3.000000,16391.000000,1.000000,0.000000,-12.000000
14.062234,-11.000000,7.000000,16391.000000,-2.000000,-37.000000,-2.000000
14.062853,7.000000,-10.000000,16399.000000,2.000000,-7.000000,-3.000000
14.063408,-4.000000,0.000000,16413.000000,14.000000,-14.000000,-20.000000
14.063813,-4.000000,4.000000,16380.000000,-9.000000,23.000000,-31.000000
14.067064,-7.000000,-8.000000,16399.000000,-10.000000,-14.000000,4.000000
14.067974,9.000000,1.000000,16393.000000,-32.000000,10.000000,-10.000000
14.082391,1.000000,-6.000000,16402.000000,-1.000000,2.000000,8.000000
14.097912,-5.000000,17.000000,16382.000000,17.000000,24.000000,16.000000
14.098906,5.000000,4.000000,16386.000000,14.000000,18.000000,16.000000
14.176807,6.000000,5.000000,16384.000000,28.000000,-1.000000,2.000000
14.178206,4.000000,-2.000000,16402.000000,-3.000000,1.000000,-8.000000
14.178888,2.000000,-5.000000,16384.000000,-28.000000,6.000000,-11.000000
14.179348,1.000000,3.000000,16390.000000,-8.000000,-3.000000,1.000000
14.179897,7.000000,-7.000000,16385.000000,-12.000000,-5.000000,-12.000000
14.180314,1.000000,4.000000,16381.000000,-20.000000,-2.000000,-5.000000
14.180819,7.000000,-7.000000,16406.000000,-20.000000,-2.000000,-20.000000
14.181227,7.000000,6.000000,16395.000000,-30.000000,-19.000000,-16.000000
14.192110,-4.000000,-13.000000,16400.000000,-6.000000,-12.000000,-4.000000
14.207659,3.000000,3.000000,16404.000000,16.000000,-14.000000,17.000000
14.208646,-8.000000,12.000000,16415.000000,-4.000000,-13.000000,4.000000
14.289723,-4.000000,7.000000,16379.000000,1.000000,4.000000,5.000000
14.292842,-5.000000,6.000000,16377.000000,8.000000,10.000000,-1.000000
14.294521,0.000000,0.000000,16382.000000,11.000000,9.000000,9.000000
14.295449,1.000000,6.000000,16390.000000,-2.000000,-3.000000,8.000000
14.296104,-2.000000,3.000000,16384.000000,3.000000,16.000000,-8.000000
14.296641,5.000000,-2.000000,16402.000000,-23.000000,-2.000000,-3.000000
14.297117,-6.000000,-1.000000,16384.000000,-11.000000,-5.000000,20.000000
14.297628,3.000000,-15.000000,16399.000000,6.000000,23.000000,4.000000
14.302179,1.000000,-13.000000,16388.000000,6.000000,8.000000,-1.000000
14.318483,1.000000,-3.000000,16384.000000,3.000000,18.000000,-5.000000
14.319714,-4.000000,-2.000000,16392.000000,-5.000000,-2.000000,8.000000
14.410273,3.000000,-6.000000,16404.000000,13.000000,-4.000000,5.000000
14.413376,-12.000000,-4.000000,16374.000000,14.000000,-5.000000,1.000000
14.415151,-5.000000,16.000000,16398.000000,-4.000000,-3.000000,7.000000
14.417017,4.000000,6.000000,16381.000000,-31.000000,-23.000000,6.000000
14.418309,-7.000000,1.000000,16389.000000,-9.000000,-8.000000,0.000000
14.419560,-7.000000,-3.000000,16391.000000,19.000000,-8.000000,2.000000
14.422119,-2.000000,-2.000000,16387.000000,15.000000,-10.000000,13.000000
14.424186,-8.000000,-2.000000,16382.000000,-1.000000,-6.000000,22.000000
14.426307,4.000000,5.000000,16385.000000,-16.000000,14.000000,12.000000
14.427953,2.000000,-11.000000,16406.000000,0.000000,2.000000,0.000000
14.428910,2.000000,6.000000,16399.000000,-12.000000,13.000000,-17.000000
14.441015,0.000000,-3.000000,16401.000000,6.000000,21.000000,0.000000
14.511253,-4.000000,2.000000,16388.000000,-2.000000,13.000000,6.000000
14.514392,2.000000,5.000000,16396.000000,5.000000,5.000000,-5.000000
14.516246,7.000000,-8.000000,16395.000000,-16.000000,28.000000,-9.000000
14.518331,-12.000000,3.000000,16382.000000,10.000000,-25.000000,3.000000
14.520328,11.000000,-6.000000,16402.000000,-7.000000,24.000000,1.000000
14.522231,6.000000,-10.000000,16389.000000,9.000000,5.000000,-15.000000
14.524318,-5.000000,5.000000,16386.000000,-14.000000,22.000000,0.000000
14.526622,-1.000000,3.000000,16390.000000,-6.000000,4.000000,-1.000000
14.535480,1.000000,2.000000,16376.000000,4.000000,26.000000,-30.000000
14.536546,-2.000000,6.000000,16386.000000,-7.000000,-2.000000,-12.000000
14.619219,-5.000000,-8.000000,16387.000000,8.000000,7.000000,15.000000
14.620615,3.000000,-7.000000,16400.000000,21.000000,15.000000,-3.000000
14.621280,-10.000000,-2.000000,16391.000000,-11.000000,0.000000,-16.000000
14.621833,8.000000,-8.000000,16412.000000,-4.000000,-8.000000,-20.000000
14.622437,-3.000000,3.000000,16378.000000,9.000000,-20.000000,-18.000000
14.623022,-14.000000,0.000000,16389.000000,10.000000,-11.000000,3.000000
14.623549,5.000000,-3.000000,16388.000000,24.000000,0.000000,-12.000000
14.624105,-1.000000,11.000000,16396.000000,15.000000,0.000000,-27.000000
14.629473,1.000000,1.000000,16391.000000,-17.000000,7.000000,-22.000000
14.645436,1.000000,-6.000000,16383.000000,-2.000000,-1.000000,-10.000000
14.646488,-8.000000,10.000000,16411.000000,24.000000,-2.000000,-21.000000
14.733608,2.000000,-4.000000,16402.000000,-8.000000,-13.000000,-11.000000
14.736820,-3.000000,2.000000,16377.000000,1.000000,3.000000,1.000000
14.738403,-13.000000,-4.000000,16374.000000,9.000000,9.000000,11.000000
14.740629,-7.000000,7.000000,16398.000000,8.000000,21.000000,5.000000
14.742644,2.000000,-9.000000,16393.000000,7.000000,-1.000000,7.000000
14.743730,-2.000000,-4.000000,16387.000000,5.000000,-7.000000,17.000000
14.744468,2.000000,7.000000,16396.000000,19.000000,2.000000,-18.000000
14.745076,-7.000000,8.000000,16384.000000,9.000000,-42.000000,-4.000000
14.745829,0.000000,6.000000,16381.000000,18.000000,-20.000000,5.000000
14.755051,2.000000,6.000000,16391.000000,-13.000000,8.000000,4.000000
14.756148,3.000000,-2.000000,16382.000000,-4.000000,3.000000,-11.000000
14.770670,-1.000000,9.000000,16385.000000,12.000000,-12.000000,-3.000000
14.847005,2.000000,6.000000,16390.000000,7.000000,8.000000,8.000000
14.848290,11.000000,-4.000000,16388.000000,-30.000000,20.000000,-21.000000
14.848885,10.000000,15.000000,16389.000000,6.000000,14.000000,-2.000000
14.849460,-2.000000,6.000000,16386.000000,18.000000,1.000000,-1.000000
14.850037,0.000000,1.000000,16377.000000,8.000000,-20.000000,-9.000000
14.850689,-5.000000,-6.000000,16392.000000,-19.000000,-4.000000,-14.000000
14.851726,0.000000,-15.000000,16394.000000,2.000000,-5.000000,2.000000
14.852516,-1.000000,-4.000000,16384.000000,2.000000,13.000000,-4.000000
14.863840,-7.000000,0.000000,16403.000000,-8.000000,21.000000,1.000000
14.864879,-3.000000,1.000000,16408.000000,-14.000000,9.000000,-10.000000
14.879885,8.000000,-2.000000,16385.000000,-30.000000,-14.000000,-20.000000
14.964180,4.000000,-6.000000,16396.000000,-3.000000,-12.000000,-16.000000
14.967714,5.000000,-4.000000,16389.000000,14.000000,-7.000000,9.000000
14.969519,-2.000000,0.000000,16384.000000,17.000000,5.000000,-9.000000
14.970127,1.000000,-8.000000,16397.000000,7.000000,16.000000,0.000000
14.970759,0.000000,-4.000000,16388.000000,-13.000000,17.000000,4.000000
14.971415,-6.000000,1.000000,16395.000000,8.000000,-4.000000,9.000000
14.972807,-2.000000,20.000000,16378.000000,13.000000,15.000000,6.000000
14.973595,-6.000000,9.000000,16392.000000,15.000000,-2.000000,4.000000
14.975023,-10.000000,-3.000000,16385.000000,-16.000000,22.000000,7.000000
14.987784,1.000000,-11.000000,16384.000000,-7.000000,-9.000000,0.000000
14.988736,-4.000000,-10.000000,16386.000000,12.000000,-2.000000,23.000000
15.071210,0.000000,5.000000,16395.000000,-11.000000,11.000000,27.000000
15.073512,-4.000000,4.000000,16387.000000,3.000000,19.000000,18.000000
15.075086,-2.000000,5.000000,16374.000000,24.000000,7.000000,23.000000
15.076560,-2.000000,-4.000000,16379.000000,3.000000,-9.000000,-3.000000
15.078085,-8.000000,-7.000000,16380.000000,9.000000,11.000000,6.000000
15.079542,5.000000,10.000000,16393.000000,-16.000000,0.000000,13.000000
15.081471,6.000000,-2.000000,16388.000000,-16.000000,-21.000000,23.000000
15.083991,2.000000,-1.000000,16392.000000,-13.000000,18.000000,0.000000
15.085474,-7.000000,-6.000000,16385.000000,15.000000,-20.000000,7.000000
15.098024,-3.000000,-8.000000,16394.000000,29.000000,-3.000000,16.000000
15.099888,-14.000000,6.000000,16410.000000,12.000000,7.000000,17.000000
15.185997,-1.000000,4.000000,16406.000000,-8.000000,10.000000,-9.000000
15.189476,-4.000000,7.000000,16387.000000,13.000000,10.000000,20.000000
15.191444,-2.000000,-2.000000,16383.000000,6.000000,10.000000,15.000000
15.193637,11.000000,-5.000000,16384.000000,11.000000,-5.000000,7.000000
15.195056,6.000000,2.000000,16391.000000,13.000000,-13.000000,-10.000000
15.195960,2.000000,-12.000000,16373.000000,-6.000000,22.000000,-11.000000
15.196642,1.000000,9.000000,16368.000000,-4.000000,14.000000,-9.000000
15.197256,-3.000000,5.000000,16382.000000,7.000000,6.000000,-6.000000
15.197805,-7.000000,-6.000000,16377.000000,-19.000000,7.000000,-6.000000
15.207894,6.000000,-1.000000,16403.000000,3.000000,-13.000000,9.000000
15.208880,-3.000000,-1.000000,16392.000000,-9.000000,-9.000000,-7.000000
15.223746,-5.000000,-9.000000,16380.000000,13.000000,-17.000000,0.000000
15.298705,4.000000,-8.000000,16389.000000,21.000000,-8.000000,7.000000
15.300048,5.000000,0.000000,16384.000000,0.000000,11.000000,1.000000
15.300589,-3.000000,-8.000000,16384.000000,19.000000,-6.000000,-1.000000
15.301148,8.000000,-3.000000,16388.000000,7.000000,1.000000,10.000000
15.302584,5.000000,6.000000,16386.000000,-21.000000,4.000000,-7.000000
15.303621,12.000000,4.000000,16398.000000,1.000000,0.000000,-7.000000
15.304975,3.000000,6.000000,16388.000000,13.000000,19.000000,1.000000
15.306400,2.000000,0.000000,16380.000000,19.000000,5.000000,14.000000
15.318174,3.000000,-6.000000,16381.000000,-17.000000,-2.000000,-1.000000
15.320463,-9.000000,12.000000,16373.000000,-15.000000,22.000000,4.000000
15.333312,-3.000000,-13.000000,16388.000000,-29.000000,5.000000,4.000000
15.412826,-3.000000,-13.000000,16396.000000,15.000000,-17.000000,-4.000000
15.414849,6.000000,-2.000000,16408.000000,-20.000000,5.000000,0.000000
15.416414,-6.000000,-9.000000,16386.000000,6.000000,9.000000,-2.000000
15.417153,-7.000000,2.000000,16395.000000,-13.000000,-21.000000,-7.000000
15.417744,-8.000000,-8.000000,16386.000000,-10.000000,12.000000,5.000000
15.418430,1.000000,-16.000000,16386.000000,-15.000000,36.000000,13.000000
15.418956,4.000000,1.000000,16415.000000,-6.000000,4.000000,10.000000
15.419490,-10.000000,13.000000,16394.000000,-2.000000,-5.000000,-16.000000
15.425070,0.000000,-9.000000,16379.000000,7.000000,21.000000,4.000000
15.426907,8.000000,-11.000000,16405.000000,-9.000000,-4.000000,6.000000
15.440784,14.000000,-2.000000,16393.000000,-15.000000,0.000000,14.000000
15.530225,5.000000,5.000000,16381.000000,6.000000,11.000000,-10.000000
15.531343,6.000000,0.000000,16386.000000,-3.000000,-14.000000,4.000000
15.531891,1.000000,3.000000,16386.000000,-21.000000,1.000000,12.000000
15.532303,2.000000,4.000000,16381.000000,-9.000000,20.000000,-20.000000
15.532758,-1.000000,-9.000000,16367.000000,-13.000000,19.000000,-21.000000
15.533173,-9.000000,4.000000,16394.000000,23.000000,-2.000000,2.000000
15.533626,-14.000000,-6.000000,16412.000000,-2.000000,-9.000000,1.000000
15.534080,-10.000000,-6.000000,16376.000000,-7.000000,6.000000,-5.000000
15.534921,-7.000000,-11.000000,16385.000000,-7.000000,10.000000,-18.000000
15.535374,2.000000,3.000000,16381.000000,-13.000000,0.000000,-5.000000
15.550492,11.000000,-4.000000,16386.000000,-18.000000,1.000000,-19.000000
15.567776,8.000000,6.000000,16388.000000,-9.000000,-13.000000,-21.000000
15.569332,14.000000,-3.000000,16379.000000,-9.000000,-7.000000,-21.000000
15.645894,6.000000,-14.000000,16395.000000,-1.000000,-16.000000,-6.000000
15.647090,3.000000,-5.000000,16385.000000,-17.000000,11.000000,-14.000000
15.647674,-3.000000,8.000000,16393.000000,8.000000,1.000000,8.000000
15.648083,-9.000000,2.000000,16377.000000,10.000000,5.000000,-8.000000
15.648556,-4.000000,7.000000,16390.000000,9.000000,10.000000,2.000000
15.648955,-3.000000,-5.000000,16393.000000,-7.000000,9.000000,-7.000000
15.649485,0.000000,2.000000,16382.000000,-23.000000,14.000000,-9.000000
15.649936,-2.000000,7.000000,16397.000000,-11.000000,3.000000,-27.000000
15.659667,6.000000,-8.000000,16407.000000,-5.000000,18.000000,-3.000000
15.674800,3.000000,-1.000000,16386.000000,7.000000,4.000000,-3.000000
15.675795,-4.000000,-16.000000,16410.000000,16.000000,16.000000,3.000000
15.766497,4.000000,-16.000000,16394.000000,16.000000,17.000000,-3.000000
15.768956,1.000000,1.000000,16385.000000,13.000000,16.000000,0.000000
15.769584,11.000000,-3.000000,16387.000000,-29.000000,4.000000,5.000000
15.770134,3.000000,4.000000,16393.000000,2.000000,-6.000000,27.000000
15.770654,9.000000,-4.000000,16400.000000,5.000000,-17.000000,1.000000
15.771142,4.000000,-6.000000,16395.000000,7.000000,-7.000000,-2.000000
15.771641,-5.000000,-8.000000,16380.000000,-5.000000,2.000000,-5.000000
15.772225,-1.000000,-2.000000,16385.000000,1.000000,-5.000000,-1.000000
15.772848,23.000000,-7.000000,16383.000000,-11.000000,17.000000,3.000000
15.785240,2.000000,-5.000000,16386.000000,-6.000000,4.000000,-7.000000
15.788203,-1.000000,-8.000000,16405.000000,1.000000,16.000000,-19.000000
15.800419,-7.000000,-6.000000,16389.000000,-25.000000,-6.000000,-11.000000
15.975564,2.000000,-15.000000,16391.000000,-14.000000,-1.000000,-2.000000
15.977303,2.000000,-1.000000,16384.000000,2.000000,-6.000000,16.000000
15.978043,-4.000000,-5.000000,16411.000000,-19.000000,30.000000,13.000000
15.978701,5.000000,-3.000000,16417.000000,-8.000000,4.000000,-3.000000
15.979455,2.000000,-9.000000,16413.000000,10.000000,5.000000,-12.000000
15.980124,1.000000,0.000000,16389.000000,-13.000000,11.000000,-7.000000
15.980737,4.000000,18.000000,16380.000000,7.000000,5.000000,17.000000
15.981602,0.000000,2.000000,16385.000000,14.000000,14.000000,9.000000
15.982523,12.000000,-4.000000,16390.000000,-15.000000,13.000000,2.000000
15.984097,9.000000,7.000000,16387.000000,3.000000,-6.000000,4.000000
15.985151,0.000000,-8.000000,16379.000000,-15.000000,21.000000,28.000000
15.985960,6.000000,12.000000,16380.000000,10.000000,-2.000000,8.000000
15.986612,0.000000,-1.000000,16374.000000,-15.000000,12.000000,1.000000
15.987197,2.000000,-2.000000,16391.000000,-8.000000,6.000000,-13.000000
15.987885,-5.000000,-2.000000,16382.000000,-38.000000,16.000000,-13.000000
15.988507,-6.000000,11.000000,16402.000000,-8.000000,1.000000,3.000000
15.989085,-5.000000,0.000000,16375.000000,2.000000,15.000000,-2.000000
15.989803,-4.000000,-1.000000,16383.000000,29.000000,-17.000000,10.000000
15.990390,-13.000000,-4.000000,16372.000000,-8.000000,-3.000000,12.000000
15.999635,-2.000000,3.000000,16380.000000,18.000000,-9.000000,4.000000
16.122211,-6.000000,5.000000,16385.000000,1.000000,9.000000,11.000000
16.125863,8.000000,1.000000,16388.000000,11.000000,-16.000000,0.000000
16.127698,8.000000,-11.000000,16381.000000,8.000000,19.000000,-7.000000
16.129449,-2.000000,1.000000,16375.000000,28.000000,-1.000000,-4.000000
16.131113,2.000000,-6.000000,16385.000000,-1.000000,7.000000,-1.000000
16.132683,-6.000000,8.000000,16373.000000,-3.000000,1.000000,8.000000
16.134352,6.000000,-3.000000,16378.000000,23.000000,-9.000000,-7.000000
16.136033,9.000000,-6.000000,16404.000000,15.000000,-26.000000,0.000000
16.137627,-2.000000,6.000000,16376.000000,3.000000,-1.000000,-5.000000
16.138793,-5.000000,12.000000,16380.000000,10.000000,12.000000,7.000000
16.140134,10.000000,-18.000000,16367.000000,-9.000000,-10.000000,4.000000
16.142599,-3.000000,-10.000000,16378.000000,-17.000000,5.000000,2.000000
16.144419,-3.000000,-3.000000,16370.000000,-13.000000,-13.000000,9.000000
16.146089,-8.000000,1.000000,16384.000000,-32.000000,22.000000,-14.000000
16.304228,1.000000,-5.000000,16382.000000,-6.000000,-8.000000,-20.000000
16.307603,1.000000,-10.000000,16390.000000,-16.000000,11.000000,-12.000000
16.309545,1.000000,-8.000000,16390.000000,-9.000000,0.000000,-10.000000
16.311494,-11.000000,-5.000000,16381.000000,-15.000000,8.000000,0.000000
16.313551,0.000000,-1.000000,16381.000000,16.000000,-9.000000,-5.000000
16.315009,-4.000000,13.000000,16375.000000,32.000000,-19.000000,-5.000000
16.317224,0.000000,-1.000000,16381.000000,-11.000000,-5.000000,2.000000
16.318736,8.000000,-9.000000,16391.000000,-25.000000,-17.000000,-6.000000
16.319466,3.000000,-6.000000,16387.000000,9.000000,-9.000000,-8.000000
16.320100,2.000000,0.000000,16385.000000,0.000000,-8.000000,-11.000000
16.320762,-3.000000,-11.000000,16383.000000,-4.000000,22.000000,-5.000000
16.321980,2.000000,-4.000000,16392.000000,36.000000,0.000000,7.000000
16.323514,0.000000,-10.000000,16384.000000,4.000000,21.000000,12.000000
16.324099,-7.000000,-1.000000,16377.000000,2.000000,-11.000000,11.000000
16.324749,0.000000,-2.000000,16385.000000,4.000000,21.000000,19.000000
16.325362,2.000000,4.000000,16394.000000,-1.000000,-1.000000,5.000000
16.325999,-1.000000,-5.000000,16392.000000,-31.000000,2.000000,-27.000000
16.328322,5.000000,-15.000000,16393.000000,-5.000000,8.000000,-1.000000
16.330538,-7.000000,-10.000000,16379.000000,17.000000,15.000000,26.000000
16.439043,-5.000000,-17.000000,16373.000000,-1.000000,-10.000000,21.000000
16.440395,1.000000,-4.000000,16379.000000,10.000000,-29.000000,-3.000000
16.440953,1.000000,-2.000000,16389.000000,-2.000000,2.000000,1.000000
16.441547,9.000000,4.000000,16387.000000,-4.000000,-6.000000,-2.000000
16.442054,11.000000,2.000000,16391.000000,-11.000000,6.000000,2.000000
16.442583,7.000000,-10.000000,16379.000000,6.000000,0.000000,9.000000
16.443090,4.000000,9.000000,16378.000000,9.000000,-2.000000,-1.000000
16.443582,7.000000,3.000000,16386.000000,16.000000,8.000000,13.000000
16.444085,-7.000000,-4.000000,16372.000000,13.000000,-10.000000,21.000000
16.444587,-8.000000,-5.000000,16391.000000,1.000000,16.000000,-5.000000
16.445084,3.000000,-9.000000,16402.000000,14.000000,-21.000000,-2.000000
16.452490,-2.000000,-6.000000,16392.000000,-22.000000,2.000000,-14.000000
16.468874,-6.000000,6.000000,16391.000000,-10.000000,-6.000000,-11.000000
16.470028,5.000000,-1.000000,16390.000000,-22.000000,5.000000,-4.000000
16.576866,-8.000000,-1.000000,16378.000000,-32.000000,-24.000000,5.000000
16.579518,-10.000000,-2.000000,16376.000000,1.000000,-2.000000,1.000000
16.580194,-2.000000,-9.000000,16389.000000,-13.000000,-1.000000,-2.000000
16.580825,-2.000000,7.000000,16384.000000,-8.000000,3.000000,-21.000000
16.581302,9.000000,-2.000000,16384.000000,3.000000,-14.000000,-8.000000
16.581886,10.000000,2.000000,16380.000000,-36.000000,16.000000,-22.000000
16.582410,7.000000,-9.000000,16380.000000,-8.000000,-10.000000,-8.000000
16.583054,11.000000,0.000000,16391.000000,12.000000,-1.000000,-5.000000
16.583686,4.000000,10.000000,16380.000000,2.000000,-19.000000,-2.000000
16.584404,5.000000,-7.000000,16387.000000,-8.000000,-8.000000,-24.000000
16.585092,1.000000,-7.000000,16378.000000,14.000000,13.000000,9.000000
16.593898,-4.000000,-7.000000,16393.000000,-8.000000,-2.000000,-4.000000
16.594920,0.000000,-10.000000,16388.000000,27.000000,5.000000,-17.000000
16.609986,-8.000000,-10.000000,16381.000000,4.000000,-10.000000,16.000000
16.754040,-11.000000,8.000000,16406.000000,1.000000,-20.000000,5.000000
16.755771,-17.000000,4.000000,16381.000000,1.000000,-9.000000,3.000000
16.756641,-4.000000,-13.000000,16396.000000,6.000000,-2.000000,-1.000000
16.757352,5.000000,-13.000000,16383.000000,13.000000,-14.000000,7.000000
16.758099,-5.000000,1.000000,16381.000000,-4.000000,9.000000,-6.000000
16.758765,-7.000000,-7.000000,16389.000000,-6.000000,16.000000,-28.000000
16.759412,5.000000,11.000000,16376.000000,17.000000,10.000000,3.000000
16.760110,11.000000,6.000000,16379.000000,2.000000,12.000000,-6.000000
16.760754,5.000000,4.000000,16382.000000,-7.000000,-4.000000,-10.000000
16.761628,3.000000,-18.000000,16385.000000,-5.000000,-8.000000,-12.000000
16.762315,-1.000000,-11.000000,16376.000000,16.000000,-23.000000,-1.000000
16.763084,-9.000000,1.000000,16375.000000,-21.000000,2.000000,-4.000000
16.763795,-2.000000,-10.000000,16394.000000,-13.000000,25.000000,-13.000000
16.764384,-3.000000,3.000000,16384.000000,-19.000000,-2.000000,-20.000000
16.766216,9.000000,-5.000000,16388.000000,-6.000000,-3.000000,-7.000000
16.767451,-4.000000,-4.000000,16389.000000,-24.000000,15.000000,-28.000000
16.781779,-2.000000,-3.000000,16386.000000,-15.000000,12.000000,-25.000000
16.801959,5.000000,0.000000,16404.000000,2.000000,7.000000,9.000000
16.803652,-8.000000,-11.000000,16425.000000,11.000000,3.000000,14.000000
16.814981,-9.000000,-5.000000,16384.000000,13.000000,2.000000,3.000000
16.817439,-8.000000,-6.000000,16394.000000,31.000000,-12.000000,8.000000
16.830208,-3.000000,-19.000000,16393.000000,-10.000000,11.000000,0.000000
16.846670,-7.000000,6.000000,16371.000000,2.000000,-2.000000,6.000000
16.849043,-2.000000,-1.000000,16391.000000,-9.000000,11.000000,27.000000
16.863160,3.000000,-1.000000,16383.000000,12.000000,4.000000,17.000000
16.878901,6.000000,5.000000,16376.000000,-15.000000,15.000000,2.000000
16.881199,1.000000,-4.000000,16385.000000,-3.000000,-3.000000,17.000000
16.893646,-5.000000,-8.000000,16380.000000,5.000000,-12.000000,14.000000
16.909761,10.000000,-2.000000,16398.000000,-17.000000,4.000000,-2.000000
16.911054,-3.000000,2.000000,16391.000000,5.000000,-2.000000,-4.000000
16.924439,1.000000,-8.000000,16388.000000,13.000000,10.000000,11.000000
16.925674,3.000000,-5.000000,16384.000000,-5.000000,17.000000,14.000000
16.940022,-10.000000,-2.000000,16372.000000,15.000000,15.000000,33.000000
16.955338,-7.000000,2.000000,16375.000000,11.000000,7.000000,14.000000
16.956639,-1.000000,-4.000000,16384.000000,0.000000,32.000000,-17.000000
16.971270,2.000000,10.000000,16400.000000,21.000000,12.000000,7.000000
16.987455,1.000000,4.000000,16384.000000,-12.000000,10.000000,13.000000
17.095242,1.000000,2.000000,16388.000000,15.000000,-5.000000,21.000000
17.097775,11.000000,-8.000000,16388.000000,-14.000000,3.000000,20.000000
17.100202,4.000000,3.000000,16403.000000,-8.000000,-14.000000,0.000000
17.102429,-4.000000,18.000000,16382.000000,-21.000000,-6.000000,10.000000
17.103621,-1.000000,2.000000,16382.000000,-17.000000,2.000000,-16.000000
17.104371,6.000000,-5.000000,16393.000000,14.000000,-9.000000,-26.000000
17.105000,-12.000000,3.000000,16398.000000,0.000000,-12.000000,-8.000000
17.105724,3.000000,-4.000000,16391.000000,25.000000,-14.000000,-8.000000
17.106410,-8.000000,-17.000000,16380.000000,-1.000000,12.000000,-7.000000
17.107036,-1.000000,-12.000000,16378.000000,-20.000000,15.000000,-15.000000
17.108142,-15.000000,-9.000000,16381.000000,-3.000000,20.000000,-9.000000
17.110511,2.000000,-12.000000,16387.000000,8.000000,-6.000000,1.000000
17.111566,-11.000000,5.000000,16367.000000,-20.000000,30.000000,-1.000000
17.124889,0.000000,-1.000000,16391.000000,13.000000,4.000000,18.000000
17.125927,-6.000000,-9.000000,16381.000000,21.000000,15.000000,19.000000
17.207983,5.000000,6.000000,16383.000000,15.000000,21.000000,6.000000
17.209787,10.000000,5.000000,16387.000000,-3.000000,12.000000,-7.000000
17.210579,0.000000,0.000000,16390.000000,7.000000,-9.000000,4.000000
17.211232,14.000000,12.000000,16388.000000,11.000000,-12.000000,-12.000000
17.211919,-2.000000,6.000000,16380.000000,9.000000,-2.000000,0.000000
17.212450,-1.000000,-5.000000,16389.000000,16.000000,-16.000000,3.000000
17.213123,0.000000,-10.000000,16403.000000,23.000000,-3.000000,-4.000000
17.217402,-8.000000,-11.000000,16381.000000,-1.000000,20.000000,-15.000000
17.218957,-6.000000,-24.000000,16371.000000,-3.000000,0.000000,-7.000000
17.233287,-2.000000,-24.000000,16382.000000,9.000000,1.000000,-9.000000
17.325150,-6.000000,-17.000000,16385.000000,12.000000,4.000000,-11.000000
17.327210,-5.000000,-6.000000,16404.000000,-20.000000,11.000000,-20.000000
17.328589,-8.000000,2.000000,16380.000000,-6.000000,7.000000,-9.000000
17.330232,-6.000000,-4.000000,16385.000000,6.000000,13.000000,-10.000000
17.331140,-2.000000,-17.000000,16383.000000,27.000000,-4.000000,26.000000
17.332235,-11.000000,-1.000000,16399.000000,2.000000,-9.000000,1.000000
17.333431,-3.000000,4.000000,16382.000000,-3.000000,-9.000000,4.000000
17.334087,1.000000,2.000000,16376.000000,17.000000,-25.000000,-7.000000
17.334783,5.000000,11.000000,16378.000000,2.000000,1.000000,-21.000000
17.335293,8.000000,6.000000,16397.000000,1.000000,3.000000,6.000000
17.342896,12.000000,3.000000,16389.000000,9.000000,-2.000000,-3.000000
17.357652,13.000000,-11.000000,16390.000000,-13.000000,14.000000,-9.000000
17.359318,6.000000,-8.000000,16382.000000,-13.000000,-17.000000,10.000000
17.446332,-9.000000,-3.000000,16380.000000,-17.000000,-7.000000,-32.000000
17.447489,4.000000,-4.000000,16384.000000,0.000000,-8.000000,-15.000000
17.448062,-5.000000,-13.000000,16391.000000,-5.000000,-11.000000,12.000000
17.448469,-11.000000,-7.000000,16380.000000,5.000000,-31.000000,12.000000
17.448930,-11.000000,0.000000,16366.000000,-7.000000,-2.000000,-11.000000
17.449407,12.000000,-15.000000,16375.000000,8.000000,-8.000000,10.000000
17.449919,2.000000,2.000000,16401.000000,-14.000000,9.000000,1.000000
17.450321,-2.000000,6.000000,16381.000000,-5.000000,-4.000000,-14.000000
17.451507,-4.000000,10.000000,16373.000000,-18.000000,32.000000,-15.000000
17.467096,6.000000,13.000000,16376.000000,13.000000,-19.000000,18.000000
17.468178,17.000000,21.000000,16377.000000,-20.000000,-7.000000,7.000000
